"trial_id","id","choice","n_draws","correct","decision_rt","ut_confidence","ut_reas_conf","ut_unpleasantness","trial_index","n_tests_all","tests_all","n_tests_att1","tests_att1","n_tests_att2","tests_att2","rule_att1","rule_att2","rule_att1_cert","rule_att2_cert","rule_guess_rt_att1","rule_guess_rt_att2","alt_rule_1","alt_rule_2","alt_rule_3","alt_rule_4","alt_rule_5","alt_rule_6","ius_p_1","ius_p_2","ius_p_3","ius_p_4","ius_p_5","ius_p_6","ius_p_7","ius_i_1","ius_i_2","ius_i_3","ius_i_4","ius_i_5","er_prg_1","er_md_1","er_ac_1","er_d_1","er_bd_1","er_md_2","er_p_1","er_bd_2","er_ac_2","er_d_2","er_prg_2","er_md_3","er_p_2","er_bd_3","er_prg_3","er_p_3","er_d_3","er_md_4","er_ac_3","er_bd_4","er_p_4","er_d_4","er_ac_4","er_prg_4","er_r_1","er_r_2","er_r_3","er_r_4","att_check_response","att_check_other_text","ius_p","ius_i","er_md","er_prg","er_ac","er_p","er_bd","er_d","er_r","er_avoid","er_engage","ius","ind","posterior","max_post","trial_diff","ut_log","ius_group","er_engage_group","er_avoid_group","er_r_group","er_prg_group","ut_conf","ut_conf_reas","ius_c","er_avoid_c","er_engage_c","er_prg_c","er_r_c","trial_ind","ut_score","ut_score_6","ut_score_567","ut_score_56","alt_rules","ut_unpl_any","ut_unpl_vals","p1_eng","p2_dis","p3_r","ius_i_c","ius_p_c","ius_s","ius_i_s","ius_p_s","er_avoid_s","er_engage_s","er_prg_s","er_r_s","ut_conf_scaled","ut_conf_diff","cor_att1","cor_att2"
"b50_y30_r20","558b20eefdf99b7dfdbac3c9","HARVESTWELL",4,1,29319.799999952,38,55,31,20,0,"[{""numbers"":[2,4,6],""theory"":""Given example"",""result"":""yes""}]",0,"[{""numbers"":[2,4,6],""theory"":""Given example"",""result"":""yes""}]",0,"[]","add two","This group of numbers 2 4 6",50,48,24275,20896.899999857,"add 2","even numbers",NA,NA,NA,NA,2,4,3,3,3,2,3,3,2,3,2,2,3,3,2,0,0,2,3,1,2,1,1,0,3,1,3,3,1,0,2,0,2,1,2,2,2,2,1,1,"other","I have read this",0.714285714285714,0.6,0.416666666666667,0.75,0.666666666666667,0.916666666666667,0.166666666666667,0.25,0.5,0.291666666666667,0.791666666666667,0.666666666666667,1,0.625,0.8223684,0.6,0.204119982655925,"high","high","low","low","high",0.69,0.775,0.140833333333333,-0.0202083333333333,0.0639583333333333,0.0675,-0.0116666666666667,"1",0.0875369020986409,0.204119982655925,0.178521647113504,0.142843734061956,2,1,31,0.308585641826985,-0.159465718769214,-0.0324216956690423,0.217,0.0864285714285714,0.740082923643071,0.838915346941241,0.477623895059724,-0.119356910023029,0.301868126327325,0.291347661837388,-0.0502378241703631,0.38,0.0850000000000001,0,0
"b35_y45_r20","558b20eefdf99b7dfdbac3c9","MAIZELEAF",12,1,56876.200000048,16,49,81,23,0,"[{""numbers"":[2,4,6],""theory"":""Given example"",""result"":""yes""}]",0,"[{""numbers"":[2,4,6],""theory"":""Given example"",""result"":""yes""}]",0,"[]","add two","This group of numbers 2 4 6",50,48,24275,20896.899999857,"add 2","even numbers",NA,NA,NA,NA,2,4,3,3,3,2,3,3,2,3,2,2,3,3,2,0,0,2,3,1,2,1,1,0,3,1,3,3,1,0,2,0,2,1,2,2,2,2,1,1,"other","I have read this",0.714285714285714,0.6,0.416666666666667,0.75,0.666666666666667,0.916666666666667,0.166666666666667,0.25,0.5,0.291666666666667,0.791666666666667,0.666666666666667,1,0.5625,0.6230769,0.777777777777778,0.2498774732166,"high","high","low","low","high",0.58,0.745,0.140833333333333,-0.0202083333333333,0.0639583333333333,0.0675,-0.0116666666666667,"2",0.0875369020986409,0.204119982655925,0.178521647113504,0.142843734061956,2,1,81,0.308585641826985,-0.159465718769214,-0.0324216956690423,0.217,0.0864285714285714,0.740082923643071,0.838915346941241,0.477623895059724,-0.119356910023029,0.301868126327325,0.291347661837388,-0.0502378241703631,0.16,0.165,0,0
"b70_y10_r20","558b20eefdf99b7dfdbac3c9","WAKESOIL",5,1,22663.299999952,55,54,49,26,0,"[{""numbers"":[2,4,6],""theory"":""Given example"",""result"":""yes""}]",0,"[{""numbers"":[2,4,6],""theory"":""Given example"",""result"":""yes""}]",0,"[]","add two","This group of numbers 2 4 6",50,48,24275,20896.899999857,"add 2","even numbers",NA,NA,NA,NA,2,4,3,3,3,2,3,3,2,3,2,2,3,3,2,0,0,2,3,1,2,1,1,0,3,1,3,3,1,0,2,0,2,1,2,2,2,2,1,1,"other","I have read this",0.714285714285714,0.6,0.416666666666667,0.75,0.666666666666667,0.916666666666667,0.166666666666667,0.25,0.5,0.291666666666667,0.791666666666667,0.666666666666667,1,0.98,1,0.142857142857143,0.00877392430750515,"high","high","low","low","high",0.775,0.77,0.140833333333333,-0.0202083333333333,0.0639583333333333,0.0675,-0.0116666666666667,"3",0.0875369020986409,0.204119982655925,0.178521647113504,0.142843734061956,2,1,49,0.308585641826985,-0.159465718769214,-0.0324216956690423,0.217,0.0864285714285714,0.740082923643071,0.838915346941241,0.477623895059724,-0.119356910023029,0.301868126327325,0.291347661837388,-0.0502378241703631,0.55,-0.005,0,0
"b20_y60_r20","558b20eefdf99b7dfdbac3c9","TALLGRAIN",8,1,30006.400000095,37,48,45,29,0,"[{""numbers"":[2,4,6],""theory"":""Given example"",""result"":""yes""}]",0,"[{""numbers"":[2,4,6],""theory"":""Given example"",""result"":""yes""}]",0,"[]","add two","This group of numbers 2 4 6",50,48,24275,20896.899999857,"add 2","even numbers",NA,NA,NA,NA,2,4,3,3,3,2,3,3,2,3,2,2,3,3,2,0,0,2,3,1,2,1,1,0,3,1,3,3,1,0,2,0,2,1,2,2,2,2,1,1,"other","I have read this",0.714285714285714,0.6,0.416666666666667,0.75,0.666666666666667,0.916666666666667,0.166666666666667,0.25,0.5,0.291666666666667,0.791666666666667,0.666666666666667,1,0.9,0.9998476,0.333333333333333,0.0457574905606751,"high","high","low","low","high",0.685,0.74,0.140833333333333,-0.0202083333333333,0.0639583333333333,0.0675,-0.0116666666666667,"4",0.0875369020986409,0.204119982655925,0.178521647113504,0.142843734061956,2,1,45,0.308585641826985,-0.159465718769214,-0.0324216956690423,0.217,0.0864285714285714,0.740082923643071,0.838915346941241,0.477623895059724,-0.119356910023029,0.301868126327325,0.291347661837388,-0.0502378241703631,0.37,0.0549999999999999,0,0
"b15_y65_r20","558b20eefdf99b7dfdbac3c9","GOLDLEAF",7,1,25139.299999952,48,51,45,32,0,"[{""numbers"":[2,4,6],""theory"":""Given example"",""result"":""yes""}]",0,"[{""numbers"":[2,4,6],""theory"":""Given example"",""result"":""yes""}]",0,"[]","add two","This group of numbers 2 4 6",50,48,24275,20896.899999857,"add 2","even numbers",NA,NA,NA,NA,2,4,3,3,3,2,3,3,2,3,2,2,3,3,2,0,0,2,3,1,2,1,1,0,3,1,3,3,1,0,2,0,2,1,2,2,2,2,1,1,"other","I have read this",0.714285714285714,0.6,0.416666666666667,0.75,0.666666666666667,0.916666666666667,0.166666666666667,0.25,0.5,0.291666666666667,0.791666666666667,0.666666666666667,1,0.949438202247191,0.999992,0.230769230769231,0.0225332976952204,"high","high","low","low","high",0.74,0.755,0.140833333333333,-0.0202083333333333,0.0639583333333333,0.0675,-0.0116666666666667,"5",0.0875369020986409,0.204119982655925,0.178521647113504,0.142843734061956,2,1,45,0.308585641826985,-0.159465718769214,-0.0324216956690423,0.217,0.0864285714285714,0.740082923643071,0.838915346941241,0.477623895059724,-0.119356910023029,0.301868126327325,0.291347661837388,-0.0502378241703631,0.48,0.015,0,0
"b25_y55_r20","558b20eefdf99b7dfdbac3c9","STRONGLEAF",10,1,36274.200000048,32,43,48,35,0,"[{""numbers"":[2,4,6],""theory"":""Given example"",""result"":""yes""}]",0,"[{""numbers"":[2,4,6],""theory"":""Given example"",""result"":""yes""}]",0,"[]","add two","This group of numbers 2 4 6",50,48,24275,20896.899999857,"add 2","even numbers",NA,NA,NA,NA,2,4,3,3,3,2,3,3,2,3,2,2,3,3,2,0,0,2,3,1,2,1,1,0,3,1,3,3,1,0,2,0,2,1,2,2,2,2,1,1,"other","I have read this",0.714285714285714,0.6,0.416666666666667,0.75,0.666666666666667,0.916666666666667,0.166666666666667,0.25,0.5,0.291666666666667,0.791666666666667,0.666666666666667,1,0.828767123287671,0.9141484,0.454545454545455,0.081567485467987,"high","high","low","low","high",0.66,0.715,0.140833333333333,-0.0202083333333333,0.0639583333333333,0.0675,-0.0116666666666667,"6",0.0875369020986409,0.204119982655925,0.178521647113504,0.142843734061956,2,1,48,0.308585641826985,-0.159465718769214,-0.0324216956690423,0.217,0.0864285714285714,0.740082923643071,0.838915346941241,0.477623895059724,-0.119356910023029,0.301868126327325,0.291347661837388,-0.0502378241703631,0.32,0.0549999999999999,0,0
"b75_y05_r20","558b20eefdf99b7dfdbac3c9","SHADESEED",7,1,24518.099999905,55,51,53,38,0,"[{""numbers"":[2,4,6],""theory"":""Given example"",""result"":""yes""}]",0,"[{""numbers"":[2,4,6],""theory"":""Given example"",""result"":""yes""}]",0,"[]","add two","This group of numbers 2 4 6",50,48,24275,20896.899999857,"add 2","even numbers",NA,NA,NA,NA,2,4,3,3,3,2,3,3,2,3,2,2,3,3,2,0,0,2,3,1,2,1,1,0,3,1,3,3,1,0,2,0,2,1,2,2,2,2,1,1,"other","I have read this",0.714285714285714,0.6,0.416666666666667,0.75,0.666666666666667,0.916666666666667,0.166666666666667,0.25,0.5,0.291666666666667,0.791666666666667,0.666666666666667,1,0.999703791469194,1,0.0666666666666667,0.000128660786573724,"high","high","low","low","high",0.775,0.755,0.140833333333333,-0.0202083333333333,0.0639583333333333,0.0675,-0.0116666666666667,"7",0.0875369020986409,0.204119982655925,0.178521647113504,0.142843734061956,2,1,53,0.308585641826985,-0.159465718769214,-0.0324216956690423,0.217,0.0864285714285714,0.740082923643071,0.838915346941241,0.477623895059724,-0.119356910023029,0.301868126327325,0.291347661837388,-0.0502378241703631,0.55,-0.02,0,0
"b20_y60_r20","5981b8259c83ca00012bddcb","TALLGRAIN",11,1,54249.699999928,85,100,0,23,3,"[{""numbers"":[2,4,6],""theory"":""Given example"",""result"":""yes""},{""numbers"":[8,10,12],""theory"":""To determine if the robot is activated via even numbers."",""result"":""yes""},{""numbers"":[1,3,5],""theory"":""To determine if the robot is activated via low to high numbers."",""result"":""yes""},{""numbers"":[1,2,3],""theory"":""To determine if the robot is activated via low to high numbers."",""result"":""yes""}]",3,"[{""numbers"":[2,4,6],""theory"":""Given example"",""result"":""yes""},{""numbers"":[8,10,12],""theory"":""To determine if the robot is activated via even numbers."",""result"":""yes""},{""numbers"":[1,3,5],""theory"":""To determine if the robot is activated via low to high numbers."",""result"":""yes""},{""numbers"":[1,2,3],""theory"":""To determine if the robot is activated via low to high numbers."",""result"":""yes""}]",0,"[]","The robot gets activated with numbers that are low to high such as 1, 2, and 3.","Numbers that are low to high.",95,95,127264.89999998,51324.399999976,"Even numbers","Series of numbers from low to high",NA,NA,NA,NA,1,2,2,2,2,1,2,0,0,0,0,0,3,0,3,0,0,0,3,0,2,0,2,0,3,0,3,3,0,0,3,0,3,0,3,3,3,0,3,0,"other","I have read this",0.428571428571429,0,0,0.916666666666667,0.916666666666667,1,0,0,0.5,0,0.958333333333333,0.25,10,0.995901639344262,0.9998476,0.333333333333333,0.00178355274041722,"low","high","low","low","high",0.925,1,-0.275833333333333,-0.311875,0.230625,0.234166666666667,-0.0116666666666667,"1",0.0625165284337389,0.0529246837077285,0.145174054946566,0.0672460845878578,2,0,NA,0.98956163154493,-1.66595859106085,-0.441369128353901,-0.383,-0.199285714285714,-1.44951152500507,-1.48066625750459,-1.10129807207986,-1.8420339619018,1.08849516561677,1.01072460464575,-0.0502378241703631,0.85,0.075,1,1
"b50_y30_r20","5981b8259c83ca00012bddcb","HARVESTWELL",16,1,64602.800000072,80,95,0,26,3,"[{""numbers"":[2,4,6],""theory"":""Given example"",""result"":""yes""},{""numbers"":[8,10,12],""theory"":""To determine if the robot is activated via even numbers."",""result"":""yes""},{""numbers"":[1,3,5],""theory"":""To determine if the robot is activated via low to high numbers."",""result"":""yes""},{""numbers"":[1,2,3],""theory"":""To determine if the robot is activated via low to high numbers."",""result"":""yes""}]",3,"[{""numbers"":[2,4,6],""theory"":""Given example"",""result"":""yes""},{""numbers"":[8,10,12],""theory"":""To determine if the robot is activated via even numbers."",""result"":""yes""},{""numbers"":[1,3,5],""theory"":""To determine if the robot is activated via low to high numbers."",""result"":""yes""},{""numbers"":[1,2,3],""theory"":""To determine if the robot is activated via low to high numbers."",""result"":""yes""}]",0,"[]","The robot gets activated with numbers that are low to high such as 1, 2, and 3.","Numbers that are low to high.",95,95,127264.89999998,51324.399999976,"Even numbers","Series of numbers from low to high",NA,NA,NA,NA,1,2,2,2,2,1,2,0,0,0,0,0,3,0,3,0,0,0,3,0,2,0,2,0,3,0,3,3,0,0,3,0,3,0,3,3,3,0,3,0,"other","I have read this",0.428571428571429,0,0,0.916666666666667,0.916666666666667,1,0,0,0.5,0,0.958333333333333,0.25,10,0.885269121813031,0.8223684,0.6,0.0529246837077285,"low","high","low","low","high",0.9,0.975,-0.275833333333333,-0.311875,0.230625,0.234166666666667,-0.0116666666666667,"2",0.0625165284337389,0.0529246837077285,0.145174054946566,0.0672460845878578,2,0,NA,0.98956163154493,-1.66595859106085,-0.441369128353901,-0.383,-0.199285714285714,-1.44951152500507,-1.48066625750459,-1.10129807207986,-1.8420339619018,1.08849516561677,1.01072460464575,-0.0502378241703631,0.8,0.075,1,1
"b70_y10_r20","5981b8259c83ca00012bddcb","WAKESOIL",12,1,49933.399999976,90,100,0,29,3,"[{""numbers"":[2,4,6],""theory"":""Given example"",""result"":""yes""},{""numbers"":[8,10,12],""theory"":""To determine if the robot is activated via even numbers."",""result"":""yes""},{""numbers"":[1,3,5],""theory"":""To determine if the robot is activated via low to high numbers."",""result"":""yes""},{""numbers"":[1,2,3],""theory"":""To determine if the robot is activated via low to high numbers."",""result"":""yes""}]",3,"[{""numbers"":[2,4,6],""theory"":""Given example"",""result"":""yes""},{""numbers"":[8,10,12],""theory"":""To determine if the robot is activated via even numbers."",""result"":""yes""},{""numbers"":[1,3,5],""theory"":""To determine if the robot is activated via low to high numbers."",""result"":""yes""},{""numbers"":[1,2,3],""theory"":""To determine if the robot is activated via low to high numbers."",""result"":""yes""}]",0,"[]","The robot gets activated with numbers that are low to high such as 1, 2, and 3.","Numbers that are low to high.",95,95,127264.89999998,51324.399999976,"Even numbers","Series of numbers from low to high",NA,NA,NA,NA,1,2,2,2,2,1,2,0,0,0,0,0,3,0,3,0,0,0,3,0,2,0,2,0,3,0,3,3,0,0,3,0,3,0,3,3,3,0,3,0,"other","I have read this",0.428571428571429,0,0,0.916666666666667,0.916666666666667,1,0,0,0.5,0,0.958333333333333,0.25,10,0.999940504521656,1,0.142857142857143,2.58393266119938e-05,"low","high","low","low","high",0.95,1,-0.275833333333333,-0.311875,0.230625,0.234166666666667,-0.0116666666666667,"3",0.0625165284337389,0.0529246837077285,0.145174054946566,0.0672460845878578,2,0,NA,0.98956163154493,-1.66595859106085,-0.441369128353901,-0.383,-0.199285714285714,-1.44951152500507,-1.48066625750459,-1.10129807207986,-1.8420339619018,1.08849516561677,1.01072460464575,-0.0502378241703631,0.9,0.05,1,1
"b75_y05_r20","5981b8259c83ca00012bddcb","SHADESEED",12,1,45697.300000072,97,100,0,32,3,"[{""numbers"":[2,4,6],""theory"":""Given example"",""result"":""yes""},{""numbers"":[8,10,12],""theory"":""To determine if the robot is activated via even numbers."",""result"":""yes""},{""numbers"":[1,3,5],""theory"":""To determine if the robot is activated via low to high numbers."",""result"":""yes""},{""numbers"":[1,2,3],""theory"":""To determine if the robot is activated via low to high numbers."",""result"":""yes""}]",3,"[{""numbers"":[2,4,6],""theory"":""Given example"",""result"":""yes""},{""numbers"":[8,10,12],""theory"":""To determine if the robot is activated via even numbers."",""result"":""yes""},{""numbers"":[1,3,5],""theory"":""To determine if the robot is activated via low to high numbers."",""result"":""yes""},{""numbers"":[1,2,3],""theory"":""To determine if the robot is activated via low to high numbers."",""result"":""yes""}]",0,"[]","The robot gets activated with numbers that are low to high such as 1, 2, and 3.","Numbers that are low to high.",95,95,127264.89999998,51324.399999976,"Even numbers","Series of numbers from low to high",NA,NA,NA,NA,1,2,2,2,2,1,2,0,0,0,0,0,3,0,3,0,0,0,3,0,2,0,2,0,3,0,3,3,0,0,3,0,3,0,3,3,3,0,3,0,"other","I have read this",0.428571428571429,0,0,0.916666666666667,0.916666666666667,1,0,0,0.5,0,0.958333333333333,0.25,10,0.999999994147234,1,0.0666666666666667,2.54182410307678e-09,"low","high","low","low","high",0.985,1,-0.275833333333333,-0.311875,0.230625,0.234166666666667,-0.0116666666666667,"4",0.0625165284337389,0.0529246837077285,0.145174054946566,0.0672460845878578,2,0,NA,0.98956163154493,-1.66595859106085,-0.441369128353901,-0.383,-0.199285714285714,-1.44951152500507,-1.48066625750459,-1.10129807207986,-1.8420339619018,1.08849516561677,1.01072460464575,-0.0502378241703631,0.97,0.015,1,1
"b15_y65_r20","5981b8259c83ca00012bddcb","GOLDLEAF",13,1,53268,90,97,0,35,3,"[{""numbers"":[2,4,6],""theory"":""Given example"",""result"":""yes""},{""numbers"":[8,10,12],""theory"":""To determine if the robot is activated via even numbers."",""result"":""yes""},{""numbers"":[1,3,5],""theory"":""To determine if the robot is activated via low to high numbers."",""result"":""yes""},{""numbers"":[1,2,3],""theory"":""To determine if the robot is activated via low to high numbers."",""result"":""yes""}]",3,"[{""numbers"":[2,4,6],""theory"":""Given example"",""result"":""yes""},{""numbers"":[8,10,12],""theory"":""To determine if the robot is activated via even numbers."",""result"":""yes""},{""numbers"":[1,3,5],""theory"":""To determine if the robot is activated via low to high numbers."",""result"":""yes""},{""numbers"":[1,2,3],""theory"":""To determine if the robot is activated via low to high numbers."",""result"":""yes""}]",0,"[]","The robot gets activated with numbers that are low to high such as 1, 2, and 3.","Numbers that are low to high.",95,95,127264.89999998,51324.399999976,"Even numbers","Series of numbers from low to high",NA,NA,NA,NA,1,2,2,2,2,1,2,0,0,0,0,0,3,0,3,0,0,0,3,0,2,0,2,0,3,0,3,3,0,0,3,0,3,0,3,3,3,0,3,0,"other","I have read this",0.428571428571429,0,0,0.916666666666667,0.916666666666667,1,0,0,0.5,0,0.958333333333333,0.25,10,0.999345958399724,0.999992,0.230769230769231,0.000284139587622351,"low","high","low","low","high",0.95,0.985,-0.275833333333333,-0.311875,0.230625,0.234166666666667,-0.0116666666666667,"5",0.0625165284337389,0.0529246837077285,0.145174054946566,0.0672460845878578,2,0,NA,0.98956163154493,-1.66595859106085,-0.441369128353901,-0.383,-0.199285714285714,-1.44951152500507,-1.48066625750459,-1.10129807207986,-1.8420339619018,1.08849516561677,1.01072460464575,-0.0502378241703631,0.9,0.035,1,1
"b35_y45_r20","5981b8259c83ca00012bddcb","PUREGRAIN",13,0,58776.599999905,60,80,5,38,3,"[{""numbers"":[2,4,6],""theory"":""Given example"",""result"":""yes""},{""numbers"":[8,10,12],""theory"":""To determine if the robot is activated via even numbers."",""result"":""yes""},{""numbers"":[1,3,5],""theory"":""To determine if the robot is activated via low to high numbers."",""result"":""yes""},{""numbers"":[1,2,3],""theory"":""To determine if the robot is activated via low to high numbers."",""result"":""yes""}]",3,"[{""numbers"":[2,4,6],""theory"":""Given example"",""result"":""yes""},{""numbers"":[8,10,12],""theory"":""To determine if the robot is activated via even numbers."",""result"":""yes""},{""numbers"":[1,3,5],""theory"":""To determine if the robot is activated via low to high numbers."",""result"":""yes""},{""numbers"":[1,2,3],""theory"":""To determine if the robot is activated via low to high numbers."",""result"":""yes""}]",0,"[]","The robot gets activated with numbers that are low to high such as 1, 2, and 3.","Numbers that are low to high.",95,95,127264.89999998,51324.399999976,"Even numbers","Series of numbers from low to high",NA,NA,NA,NA,1,2,2,2,2,1,2,0,0,0,0,0,3,0,3,0,0,0,3,0,2,0,2,0,3,0,3,3,0,0,3,0,3,0,3,3,3,0,3,0,"other","I have read this",0.428571428571429,0,0,0.916666666666667,0.916666666666667,1,0,0,0.5,0,0.958333333333333,0.25,10,0.5,0.6230769,0.777777777777778,0.301029995663981,"low","high","low","low","high",0.8,0.9,-0.275833333333333,-0.311875,0.230625,0.234166666666667,-0.0116666666666667,"6",0.0625165284337389,0.0529246837077285,0.145174054946566,0.0672460845878578,2,1,5,0.98956163154493,-1.66595859106085,-0.441369128353901,-0.383,-0.199285714285714,-1.44951152500507,-1.48066625750459,-1.10129807207986,-1.8420339619018,1.08849516561677,1.01072460464575,-0.0502378241703631,0.6,0.1,1,1
"b25_y55_r20","5981b8259c83ca00012bddcb","STRONGLEAF",9,1,39384.5,70,85,0,41,3,"[{""numbers"":[2,4,6],""theory"":""Given example"",""result"":""yes""},{""numbers"":[8,10,12],""theory"":""To determine if the robot is activated via even numbers."",""result"":""yes""},{""numbers"":[1,3,5],""theory"":""To determine if the robot is activated via low to high numbers."",""result"":""yes""},{""numbers"":[1,2,3],""theory"":""To determine if the robot is activated via low to high numbers."",""result"":""yes""}]",3,"[{""numbers"":[2,4,6],""theory"":""Given example"",""result"":""yes""},{""numbers"":[8,10,12],""theory"":""To determine if the robot is activated via even numbers."",""result"":""yes""},{""numbers"":[1,3,5],""theory"":""To determine if the robot is activated via low to high numbers."",""result"":""yes""},{""numbers"":[1,2,3],""theory"":""To determine if the robot is activated via low to high numbers."",""result"":""yes""}]",0,"[]","The robot gets activated with numbers that are low to high such as 1, 2, and 3.","Numbers that are low to high.",95,95,127264.89999998,51324.399999976,"Even numbers","Series of numbers from low to high",NA,NA,NA,NA,1,2,2,2,2,1,2,0,0,0,0,0,3,0,3,0,0,0,3,0,2,0,2,0,3,0,3,3,0,0,3,0,3,0,3,3,3,0,3,0,"other","I have read this",0.428571428571429,0,0,0.916666666666667,0.916666666666667,1,0,0,0.5,0,0.958333333333333,0.25,10,0.828767123287671,0.9141484,0.454545454545455,0.081567485467987,"low","high","low","low","high",0.85,0.925,-0.275833333333333,-0.311875,0.230625,0.234166666666667,-0.0116666666666667,"7",0.0625165284337389,0.0529246837077285,0.145174054946566,0.0672460845878578,2,0,NA,0.98956163154493,-1.66595859106085,-0.441369128353901,-0.383,-0.199285714285714,-1.44951152500507,-1.48066625750459,-1.10129807207986,-1.8420339619018,1.08849516561677,1.01072460464575,-0.0502378241703631,0.7,0.0750000000000001,1,1
"b70_y10_r20","657619485d6869976045a220","WAKESOIL",9,1,42217.099999994,75,90,20,28,8,"[{""numbers"":[2,4,6],""theory"":""Given example"",""result"":""yes""},{""numbers"":[3,5,7],""theory"":""To test if the numbers need to increase in increments of 2."",""result"":""yes""},{""numbers"":[1,3,5],""theory"":""To test if the numbers need to increase in increments of 2."",""result"":""yes""},{""numbers"":[8,10,12],""theory"":""To test if the numbers need to increase in increments of 2."",""result"":""yes""},{""numbers"":[3,6,9],""theory"":""To test if the numbers need to increase in the same numerical increment which is not 2."",""result"":""yes""},{""numbers"":[4,8,12],""theory"":""To test if the numbers need to increase in the same numerical increments."",""result"":""yes""},{""numbers"":[5,10,15],""theory"":""To test if the numbers need to increase in the same numerical increments"",""result"":""yes""},{""numbers"":[15,10,5],""theory"":""To test if the numbers need to decrease in the same numerical increments."",""result"":""no""},{""numbers"":[4,7,10],""theory"":""To check if numbers need to increase by the same increment"",""result"":""yes""}]",7,"[{""numbers"":[2,4,6],""theory"":""Given example"",""result"":""yes""},{""numbers"":[3,5,7],""theory"":""To test if the numbers need to increase in increments of 2."",""result"":""yes""},{""numbers"":[1,3,5],""theory"":""To test if the numbers need to increase in increments of 2."",""result"":""yes""},{""numbers"":[8,10,12],""theory"":""To test if the numbers need to increase in increments of 2."",""result"":""yes""},{""numbers"":[3,6,9],""theory"":""To test if the numbers need to increase in the same numerical increment which is not 2."",""result"":""yes""},{""numbers"":[4,8,12],""theory"":""To test if the numbers need to increase in the same numerical increments."",""result"":""yes""},{""numbers"":[5,10,15],""theory"":""To test if the numbers need to increase in the same numerical increments"",""result"":""yes""},{""numbers"":[15,10,5],""theory"":""To test if the numbers need to decrease in the same numerical increments."",""result"":""no""}]",1,"[{""numbers"":[4,7,10],""theory"":""To check if numbers need to increase by the same increment"",""result"":""yes""}]","Numbers in the second and third position need to increase by the same numerical increment.","The numbers in the 2nd and 3rd position need to increase in the same numerical increment.",85,85,294603,33882.5,"sum of numbers is 12","the numbers increase in increments of 2","all numbers are even numbers","all numbers are even numbers and increase in increments of 2","first number is 2","last number is 6",3,4,3,4,3,4,4,3,3,3,3,3,2,2,3,1,1,0,1,1,2,1,1,0,2,1,1,2,0,0,2,1,2,0,2,2,1,2,2,2,"other","I have read this",0.892857142857143,0.75,0.166666666666667,0.5,0.75,0.583333333333333,0.333333333333333,0.166666666666667,0.583333333333333,0.25,0.666666666666667,0.833333333333333,100,0.997093023255814,1,0.142857142857143,0.00126432252875962,"high","low","low","high","low",0.875,0.95,0.3075,-0.061875,-0.0610416666666667,-0.1825,0.0716666666666667,"1",0.0472648276158759,0.0849335749367161,0.109791742622415,0.0619584472195297,6,1,20,-0.646684306085605,-0.319441184455418,-0.139834464338192,0.367,0.265,1.61592070310233,1.4188107480527,1.46445012452196,-0.365453631719997,-0.288102153139759,-0.787717752375159,0.308603777046515,0.75,0.075,0,0
"b75_y05_r20","657619485d6869976045a220","SHADESEED",10,1,37990.799999997,95,95,10,31,8,"[{""numbers"":[2,4,6],""theory"":""Given example"",""result"":""yes""},{""numbers"":[3,5,7],""theory"":""To test if the numbers need to increase in increments of 2."",""result"":""yes""},{""numbers"":[1,3,5],""theory"":""To test if the numbers need to increase in increments of 2."",""result"":""yes""},{""numbers"":[8,10,12],""theory"":""To test if the numbers need to increase in increments of 2."",""result"":""yes""},{""numbers"":[3,6,9],""theory"":""To test if the numbers need to increase in the same numerical increment which is not 2."",""result"":""yes""},{""numbers"":[4,8,12],""theory"":""To test if the numbers need to increase in the same numerical increments."",""result"":""yes""},{""numbers"":[5,10,15],""theory"":""To test if the numbers need to increase in the same numerical increments"",""result"":""yes""},{""numbers"":[15,10,5],""theory"":""To test if the numbers need to decrease in the same numerical increments."",""result"":""no""},{""numbers"":[4,7,10],""theory"":""To check if numbers need to increase by the same increment"",""result"":""yes""}]",7,"[{""numbers"":[2,4,6],""theory"":""Given example"",""result"":""yes""},{""numbers"":[3,5,7],""theory"":""To test if the numbers need to increase in increments of 2."",""result"":""yes""},{""numbers"":[1,3,5],""theory"":""To test if the numbers need to increase in increments of 2."",""result"":""yes""},{""numbers"":[8,10,12],""theory"":""To test if the numbers need to increase in increments of 2."",""result"":""yes""},{""numbers"":[3,6,9],""theory"":""To test if the numbers need to increase in the same numerical increment which is not 2."",""result"":""yes""},{""numbers"":[4,8,12],""theory"":""To test if the numbers need to increase in the same numerical increments."",""result"":""yes""},{""numbers"":[5,10,15],""theory"":""To test if the numbers need to increase in the same numerical increments"",""result"":""yes""},{""numbers"":[15,10,5],""theory"":""To test if the numbers need to decrease in the same numerical increments."",""result"":""no""}]",1,"[{""numbers"":[4,7,10],""theory"":""To check if numbers need to increase by the same increment"",""result"":""yes""}]","Numbers in the second and third position need to increase by the same numerical increment.","The numbers in the 2nd and 3rd position need to increase in the same numerical increment.",85,85,294603,33882.5,"sum of numbers is 12","the numbers increase in increments of 2","all numbers are even numbers","all numbers are even numbers and increase in increments of 2","first number is 2","last number is 6",3,4,3,4,3,4,4,3,3,3,3,3,2,2,3,1,1,0,1,1,2,1,1,0,2,1,1,2,0,0,2,1,2,0,2,2,1,2,2,2,"other","I have read this",0.892857142857143,0.75,0.166666666666667,0.5,0.75,0.583333333333333,0.333333333333333,0.166666666666667,0.583333333333333,0.25,0.666666666666667,0.833333333333333,100,0.999998683129306,1,0.0666666666666667,5.7191005227366e-07,"high","low","low","high","low",0.975,0.975,0.3075,-0.061875,-0.0610416666666667,-0.1825,0.0716666666666667,"2",0.0472648276158759,0.0849335749367161,0.109791742622415,0.0619584472195297,6,1,10,-0.646684306085605,-0.319441184455418,-0.139834464338192,0.367,0.265,1.61592070310233,1.4188107480527,1.46445012452196,-0.365453631719997,-0.288102153139759,-0.787717752375159,0.308603777046515,0.95,0,0,0
"b35_y45_r20","657619485d6869976045a220","MAIZELEAF",20,1,80801.600000009,45,45,50,34,8,"[{""numbers"":[2,4,6],""theory"":""Given example"",""result"":""yes""},{""numbers"":[3,5,7],""theory"":""To test if the numbers need to increase in increments of 2."",""result"":""yes""},{""numbers"":[1,3,5],""theory"":""To test if the numbers need to increase in increments of 2."",""result"":""yes""},{""numbers"":[8,10,12],""theory"":""To test if the numbers need to increase in increments of 2."",""result"":""yes""},{""numbers"":[3,6,9],""theory"":""To test if the numbers need to increase in the same numerical increment which is not 2."",""result"":""yes""},{""numbers"":[4,8,12],""theory"":""To test if the numbers need to increase in the same numerical increments."",""result"":""yes""},{""numbers"":[5,10,15],""theory"":""To test if the numbers need to increase in the same numerical increments"",""result"":""yes""},{""numbers"":[15,10,5],""theory"":""To test if the numbers need to decrease in the same numerical increments."",""result"":""no""},{""numbers"":[4,7,10],""theory"":""To check if numbers need to increase by the same increment"",""result"":""yes""}]",7,"[{""numbers"":[2,4,6],""theory"":""Given example"",""result"":""yes""},{""numbers"":[3,5,7],""theory"":""To test if the numbers need to increase in increments of 2."",""result"":""yes""},{""numbers"":[1,3,5],""theory"":""To test if the numbers need to increase in increments of 2."",""result"":""yes""},{""numbers"":[8,10,12],""theory"":""To test if the numbers need to increase in increments of 2."",""result"":""yes""},{""numbers"":[3,6,9],""theory"":""To test if the numbers need to increase in the same numerical increment which is not 2."",""result"":""yes""},{""numbers"":[4,8,12],""theory"":""To test if the numbers need to increase in the same numerical increments."",""result"":""yes""},{""numbers"":[5,10,15],""theory"":""To test if the numbers need to increase in the same numerical increments"",""result"":""yes""},{""numbers"":[15,10,5],""theory"":""To test if the numbers need to decrease in the same numerical increments."",""result"":""no""}]",1,"[{""numbers"":[4,7,10],""theory"":""To check if numbers need to increase by the same increment"",""result"":""yes""}]","Numbers in the second and third position need to increase by the same numerical increment.","The numbers in the 2nd and 3rd position need to increase in the same numerical increment.",85,85,294603,33882.5,"sum of numbers is 12","the numbers increase in increments of 2","all numbers are even numbers","all numbers are even numbers and increase in increments of 2","first number is 2","last number is 6",3,4,3,4,3,4,4,3,3,3,3,3,2,2,3,1,1,0,1,1,2,1,1,0,2,1,1,2,0,0,2,1,2,0,2,2,1,2,2,2,"other","I have read this",0.892857142857143,0.75,0.166666666666667,0.5,0.75,0.583333333333333,0.333333333333333,0.166666666666667,0.583333333333333,0.25,0.666666666666667,0.833333333333333,100,0.623076923076923,0.6230769,0.777777777777778,0.205458333428187,"high","low","low","high","low",0.725,0.725,0.3075,-0.061875,-0.0610416666666667,-0.1825,0.0716666666666667,"3",0.0472648276158759,0.0849335749367161,0.109791742622415,0.0619584472195297,6,1,50,-0.646684306085605,-0.319441184455418,-0.139834464338192,0.367,0.265,1.61592070310233,1.4188107480527,1.46445012452196,-0.365453631719997,-0.288102153139759,-0.787717752375159,0.308603777046515,0.45,0,0,0
"b50_y30_r20","657619485d6869976045a220","HARVESTWELL",20,1,72153.5,60,60,40,37,8,"[{""numbers"":[2,4,6],""theory"":""Given example"",""result"":""yes""},{""numbers"":[3,5,7],""theory"":""To test if the numbers need to increase in increments of 2."",""result"":""yes""},{""numbers"":[1,3,5],""theory"":""To test if the numbers need to increase in increments of 2."",""result"":""yes""},{""numbers"":[8,10,12],""theory"":""To test if the numbers need to increase in increments of 2."",""result"":""yes""},{""numbers"":[3,6,9],""theory"":""To test if the numbers need to increase in the same numerical increment which is not 2."",""result"":""yes""},{""numbers"":[4,8,12],""theory"":""To test if the numbers need to increase in the same numerical increments."",""result"":""yes""},{""numbers"":[5,10,15],""theory"":""To test if the numbers need to increase in the same numerical increments"",""result"":""yes""},{""numbers"":[15,10,5],""theory"":""To test if the numbers need to decrease in the same numerical increments."",""result"":""no""},{""numbers"":[4,7,10],""theory"":""To check if numbers need to increase by the same increment"",""result"":""yes""}]",7,"[{""numbers"":[2,4,6],""theory"":""Given example"",""result"":""yes""},{""numbers"":[3,5,7],""theory"":""To test if the numbers need to increase in increments of 2."",""result"":""yes""},{""numbers"":[1,3,5],""theory"":""To test if the numbers need to increase in increments of 2."",""result"":""yes""},{""numbers"":[8,10,12],""theory"":""To test if the numbers need to increase in increments of 2."",""result"":""yes""},{""numbers"":[3,6,9],""theory"":""To test if the numbers need to increase in the same numerical increment which is not 2."",""result"":""yes""},{""numbers"":[4,8,12],""theory"":""To test if the numbers need to increase in the same numerical increments."",""result"":""yes""},{""numbers"":[5,10,15],""theory"":""To test if the numbers need to increase in the same numerical increments"",""result"":""yes""},{""numbers"":[15,10,5],""theory"":""To test if the numbers need to decrease in the same numerical increments."",""result"":""no""}]",1,"[{""numbers"":[4,7,10],""theory"":""To check if numbers need to increase by the same increment"",""result"":""yes""}]","Numbers in the second and third position need to increase by the same numerical increment.","The numbers in the 2nd and 3rd position need to increase in the same numerical increment.",85,85,294603,33882.5,"sum of numbers is 12","the numbers increase in increments of 2","all numbers are even numbers","all numbers are even numbers and increase in increments of 2","first number is 2","last number is 6",3,4,3,4,3,4,4,3,3,3,3,3,2,2,3,1,1,0,1,1,2,1,1,0,2,1,1,2,0,0,2,1,2,0,2,2,1,2,2,2,"other","I have read this",0.892857142857143,0.75,0.166666666666667,0.5,0.75,0.583333333333333,0.333333333333333,0.166666666666667,0.583333333333333,0.25,0.666666666666667,0.833333333333333,100,0.822368421052632,0.8223684,0.6,0.0849335749367161,"high","low","low","high","low",0.8,0.8,0.3075,-0.061875,-0.0610416666666667,-0.1825,0.0716666666666667,"4",0.0472648276158759,0.0849335749367161,0.109791742622415,0.0619584472195297,6,1,40,-0.646684306085605,-0.319441184455418,-0.139834464338192,0.367,0.265,1.61592070310233,1.4188107480527,1.46445012452196,-0.365453631719997,-0.288102153139759,-0.787717752375159,0.308603777046515,0.6,0,0,0
"b25_y55_r20","657619485d6869976045a220","STRONGLEAF",20,1,72815.400000006,60,60,35,40,8,"[{""numbers"":[2,4,6],""theory"":""Given example"",""result"":""yes""},{""numbers"":[3,5,7],""theory"":""To test if the numbers need to increase in increments of 2."",""result"":""yes""},{""numbers"":[1,3,5],""theory"":""To test if the numbers need to increase in increments of 2."",""result"":""yes""},{""numbers"":[8,10,12],""theory"":""To test if the numbers need to increase in increments of 2."",""result"":""yes""},{""numbers"":[3,6,9],""theory"":""To test if the numbers need to increase in the same numerical increment which is not 2."",""result"":""yes""},{""numbers"":[4,8,12],""theory"":""To test if the numbers need to increase in the same numerical increments."",""result"":""yes""},{""numbers"":[5,10,15],""theory"":""To test if the numbers need to increase in the same numerical increments"",""result"":""yes""},{""numbers"":[15,10,5],""theory"":""To test if the numbers need to decrease in the same numerical increments."",""result"":""no""},{""numbers"":[4,7,10],""theory"":""To check if numbers need to increase by the same increment"",""result"":""yes""}]",7,"[{""numbers"":[2,4,6],""theory"":""Given example"",""result"":""yes""},{""numbers"":[3,5,7],""theory"":""To test if the numbers need to increase in increments of 2."",""result"":""yes""},{""numbers"":[1,3,5],""theory"":""To test if the numbers need to increase in increments of 2."",""result"":""yes""},{""numbers"":[8,10,12],""theory"":""To test if the numbers need to increase in increments of 2."",""result"":""yes""},{""numbers"":[3,6,9],""theory"":""To test if the numbers need to increase in the same numerical increment which is not 2."",""result"":""yes""},{""numbers"":[4,8,12],""theory"":""To test if the numbers need to increase in the same numerical increments."",""result"":""yes""},{""numbers"":[5,10,15],""theory"":""To test if the numbers need to increase in the same numerical increments"",""result"":""yes""},{""numbers"":[15,10,5],""theory"":""To test if the numbers need to decrease in the same numerical increments."",""result"":""no""}]",1,"[{""numbers"":[4,7,10],""theory"":""To check if numbers need to increase by the same increment"",""result"":""yes""}]","Numbers in the second and third position need to increase by the same numerical increment.","The numbers in the 2nd and 3rd position need to increase in the same numerical increment.",85,85,294603,33882.5,"sum of numbers is 12","the numbers increase in increments of 2","all numbers are even numbers","all numbers are even numbers and increase in increments of 2","first number is 2","last number is 6",3,4,3,4,3,4,4,3,3,3,3,3,2,2,3,1,1,0,1,1,2,1,1,0,2,1,1,2,0,0,2,1,2,0,2,2,1,2,2,2,"other","I have read this",0.892857142857143,0.75,0.166666666666667,0.5,0.75,0.583333333333333,0.333333333333333,0.166666666666667,0.583333333333333,0.25,0.666666666666667,0.833333333333333,100,0.914148351648352,0.9141484,0.454545454545455,0.0389833195023433,"high","low","low","high","low",0.8,0.8,0.3075,-0.061875,-0.0610416666666667,-0.1825,0.0716666666666667,"5",0.0472648276158759,0.0849335749367161,0.109791742622415,0.0619584472195297,6,1,35,-0.646684306085605,-0.319441184455418,-0.139834464338192,0.367,0.265,1.61592070310233,1.4188107480527,1.46445012452196,-0.365453631719997,-0.288102153139759,-0.787717752375159,0.308603777046515,0.6,0,0,0
"b15_y65_r20","657619485d6869976045a220","GOLDLEAF",16,1,50709.699999988,75,75,20,43,8,"[{""numbers"":[2,4,6],""theory"":""Given example"",""result"":""yes""},{""numbers"":[3,5,7],""theory"":""To test if the numbers need to increase in increments of 2."",""result"":""yes""},{""numbers"":[1,3,5],""theory"":""To test if the numbers need to increase in increments of 2."",""result"":""yes""},{""numbers"":[8,10,12],""theory"":""To test if the numbers need to increase in increments of 2."",""result"":""yes""},{""numbers"":[3,6,9],""theory"":""To test if the numbers need to increase in the same numerical increment which is not 2."",""result"":""yes""},{""numbers"":[4,8,12],""theory"":""To test if the numbers need to increase in the same numerical increments."",""result"":""yes""},{""numbers"":[5,10,15],""theory"":""To test if the numbers need to increase in the same numerical increments"",""result"":""yes""},{""numbers"":[15,10,5],""theory"":""To test if the numbers need to decrease in the same numerical increments."",""result"":""no""},{""numbers"":[4,7,10],""theory"":""To check if numbers need to increase by the same increment"",""result"":""yes""}]",7,"[{""numbers"":[2,4,6],""theory"":""Given example"",""result"":""yes""},{""numbers"":[3,5,7],""theory"":""To test if the numbers need to increase in increments of 2."",""result"":""yes""},{""numbers"":[1,3,5],""theory"":""To test if the numbers need to increase in increments of 2."",""result"":""yes""},{""numbers"":[8,10,12],""theory"":""To test if the numbers need to increase in increments of 2."",""result"":""yes""},{""numbers"":[3,6,9],""theory"":""To test if the numbers need to increase in the same numerical increment which is not 2."",""result"":""yes""},{""numbers"":[4,8,12],""theory"":""To test if the numbers need to increase in the same numerical increments."",""result"":""yes""},{""numbers"":[5,10,15],""theory"":""To test if the numbers need to increase in the same numerical increments"",""result"":""yes""},{""numbers"":[15,10,5],""theory"":""To test if the numbers need to decrease in the same numerical increments."",""result"":""no""}]",1,"[{""numbers"":[4,7,10],""theory"":""To check if numbers need to increase by the same increment"",""result"":""yes""}]","Numbers in the second and third position need to increase by the same numerical increment.","The numbers in the 2nd and 3rd position need to increase in the same numerical increment.",85,85,294603,33882.5,"sum of numbers is 12","the numbers increase in increments of 2","all numbers are even numbers","all numbers are even numbers and increase in increments of 2","first number is 2","last number is 6",3,4,3,4,3,4,4,3,3,3,3,3,2,2,3,1,1,0,1,1,2,1,1,0,2,1,1,2,0,0,2,1,2,0,2,2,1,2,2,2,"other","I have read this",0.892857142857143,0.75,0.166666666666667,0.5,0.75,0.583333333333333,0.333333333333333,0.166666666666667,0.583333333333333,0.25,0.666666666666667,0.833333333333333,100,0.99996514780137,0.999992,0.230769230769231,1.51363813169553e-05,"high","low","low","high","low",0.875,0.875,0.3075,-0.061875,-0.0610416666666667,-0.1825,0.0716666666666667,"6",0.0472648276158759,0.0849335749367161,0.109791742622415,0.0619584472195297,6,1,20,-0.646684306085605,-0.319441184455418,-0.139834464338192,0.367,0.265,1.61592070310233,1.4188107480527,1.46445012452196,-0.365453631719997,-0.288102153139759,-0.787717752375159,0.308603777046515,0.75,0,0,0
"b20_y60_r20","657619485d6869976045a220","TALLGRAIN",17,1,49028,80,80,20,46,8,"[{""numbers"":[2,4,6],""theory"":""Given example"",""result"":""yes""},{""numbers"":[3,5,7],""theory"":""To test if the numbers need to increase in increments of 2."",""result"":""yes""},{""numbers"":[1,3,5],""theory"":""To test if the numbers need to increase in increments of 2."",""result"":""yes""},{""numbers"":[8,10,12],""theory"":""To test if the numbers need to increase in increments of 2."",""result"":""yes""},{""numbers"":[3,6,9],""theory"":""To test if the numbers need to increase in the same numerical increment which is not 2."",""result"":""yes""},{""numbers"":[4,8,12],""theory"":""To test if the numbers need to increase in the same numerical increments."",""result"":""yes""},{""numbers"":[5,10,15],""theory"":""To test if the numbers need to increase in the same numerical increments"",""result"":""yes""},{""numbers"":[15,10,5],""theory"":""To test if the numbers need to decrease in the same numerical increments."",""result"":""no""},{""numbers"":[4,7,10],""theory"":""To check if numbers need to increase by the same increment"",""result"":""yes""}]",7,"[{""numbers"":[2,4,6],""theory"":""Given example"",""result"":""yes""},{""numbers"":[3,5,7],""theory"":""To test if the numbers need to increase in increments of 2."",""result"":""yes""},{""numbers"":[1,3,5],""theory"":""To test if the numbers need to increase in increments of 2."",""result"":""yes""},{""numbers"":[8,10,12],""theory"":""To test if the numbers need to increase in increments of 2."",""result"":""yes""},{""numbers"":[3,6,9],""theory"":""To test if the numbers need to increase in the same numerical increment which is not 2."",""result"":""yes""},{""numbers"":[4,8,12],""theory"":""To test if the numbers need to increase in the same numerical increments."",""result"":""yes""},{""numbers"":[5,10,15],""theory"":""To test if the numbers need to increase in the same numerical increments"",""result"":""yes""},{""numbers"":[15,10,5],""theory"":""To test if the numbers need to decrease in the same numerical increments."",""result"":""no""}]",1,"[{""numbers"":[4,7,10],""theory"":""To check if numbers need to increase by the same increment"",""result"":""yes""}]","Numbers in the second and third position need to increase by the same numerical increment.","The numbers in the 2nd and 3rd position need to increase in the same numerical increment.",85,85,294603,33882.5,"sum of numbers is 12","the numbers increase in increments of 2","all numbers are even numbers","all numbers are even numbers and increase in increments of 2","first number is 2","last number is 6",3,4,3,4,3,4,4,3,3,3,3,3,2,2,3,1,1,0,1,1,2,1,1,0,2,1,1,2,0,0,2,1,2,0,2,2,1,2,2,2,"other","I have read this",0.892857142857143,0.75,0.166666666666667,0.5,0.75,0.583333333333333,0.333333333333333,0.166666666666667,0.583333333333333,0.25,0.666666666666667,0.833333333333333,100,0.999542961608775,0.9998476,0.333333333333333,0.000198534623756122,"high","low","low","high","low",0.9,0.9,0.3075,-0.061875,-0.0610416666666667,-0.1825,0.0716666666666667,"7",0.0472648276158759,0.0849335749367161,0.109791742622415,0.0619584472195297,6,1,20,-0.646684306085605,-0.319441184455418,-0.139834464338192,0.367,0.265,1.61592070310233,1.4188107480527,1.46445012452196,-0.365453631719997,-0.288102153139759,-0.787717752375159,0.308603777046515,0.8,0,0,0
"b20_y60_r20","657f5c2d51e703ef98eede73","WILDLEAF",3,0,14464.300000004,100,100,10,21,1,"[{""numbers"":[2,4,6],""theory"":""Given example"",""result"":""yes""},{""numbers"":[2,4,6],""theory"":""246"",""result"":""yes""}]",0,"[{""numbers"":[2,4,6],""theory"":""Given example"",""result"":""yes""}]",1,"[{""numbers"":[2,4,6],""theory"":""246"",""result"":""yes""}]","246","246",65,99,15046.799999997,35423,"246",NA,NA,NA,NA,NA,1,3,4,1,0,1,3,0,0,1,0,0,3,3,3,0,0,2,3,0,2,0,2,0,3,0,2,3,0,0,3,0,3,0,2,2,2,0,1,0,"other","I have read this",0.464285714285714,0.05,0.416666666666667,0.75,0.833333333333333,1,0,0,0.25,0.208333333333333,0.916666666666667,0.291666666666667,101,0.5,0.9998476,0.333333333333333,0.301029995663981,"low","high","low","low","high",1,1,-0.234166666666667,-0.103541666666667,0.188958333333333,0.0675,-0.261666666666667,"1",0.146207938608172,0.133538908370217,0.191376112159957,0.107553196919102,1,1,10,0.715187358823565,-0.68182097831056,-0.861834875952976,-0.333,-0.163571428571429,-1.23055208014026,-1.28736779046743,-0.903932826187412,-0.611550353416964,0.891838405794408,0.291347661837388,-1.126762627821,1,0,0,0
"b70_y10_r20","657f5c2d51e703ef98eede73","WAKESOIL",4,1,14861.100000001,100,99,0,24,1,"[{""numbers"":[2,4,6],""theory"":""Given example"",""result"":""yes""},{""numbers"":[2,4,6],""theory"":""246"",""result"":""yes""}]",0,"[{""numbers"":[2,4,6],""theory"":""Given example"",""result"":""yes""}]",1,"[{""numbers"":[2,4,6],""theory"":""246"",""result"":""yes""}]","246","246",65,99,15046.799999997,35423,"246",NA,NA,NA,NA,NA,1,3,4,1,0,1,3,0,0,1,0,0,3,3,3,0,0,2,3,0,2,0,2,0,3,0,2,3,0,0,3,0,3,0,2,2,2,0,1,0,"other","I have read this",0.464285714285714,0.05,0.416666666666667,0.75,0.833333333333333,1,0,0,0.25,0.208333333333333,0.916666666666667,0.291666666666667,101,0.875,1,0.142857142857143,0.0579919469776868,"low","high","low","low","high",1,0.995,-0.234166666666667,-0.103541666666667,0.188958333333333,0.0675,-0.261666666666667,"2",0.146207938608172,0.133538908370217,0.191376112159957,0.107553196919102,1,0,NA,0.715187358823565,-0.68182097831056,-0.861834875952976,-0.333,-0.163571428571429,-1.23055208014026,-1.28736779046743,-0.903932826187412,-0.611550353416964,0.891838405794408,0.291347661837388,-1.126762627821,1,-0.005,0,0
"b35_y45_r20","657f5c2d51e703ef98eede73","MAIZELEAF",7,1,24175,99,88,0,27,1,"[{""numbers"":[2,4,6],""theory"":""Given example"",""result"":""yes""},{""numbers"":[2,4,6],""theory"":""246"",""result"":""yes""}]",0,"[{""numbers"":[2,4,6],""theory"":""Given example"",""result"":""yes""}]",1,"[{""numbers"":[2,4,6],""theory"":""246"",""result"":""yes""}]","246","246",65,99,15046.799999997,35423,"246",NA,NA,NA,NA,NA,1,3,4,1,0,1,3,0,0,1,0,0,3,3,3,0,0,2,3,0,2,0,2,0,3,0,2,3,0,0,3,0,3,0,2,2,2,0,1,0,"other","I have read this",0.464285714285714,0.05,0.416666666666667,0.75,0.833333333333333,1,0,0,0.25,0.208333333333333,0.916666666666667,0.291666666666667,101,0.4375,0.6230769,0.777777777777778,0.359021942641668,"low","high","low","low","high",0.995,0.94,-0.234166666666667,-0.103541666666667,0.188958333333333,0.0675,-0.261666666666667,"3",0.146207938608172,0.133538908370217,0.191376112159957,0.107553196919102,1,0,NA,0.715187358823565,-0.68182097831056,-0.861834875952976,-0.333,-0.163571428571429,-1.23055208014026,-1.28736779046743,-0.903932826187412,-0.611550353416964,0.891838405794408,0.291347661837388,-1.126762627821,0.99,-0.055,0,0
"b15_y65_r20","657f5c2d51e703ef98eede73","GOLDLEAF",6,1,18272.300000004,99,86,3,30,1,"[{""numbers"":[2,4,6],""theory"":""Given example"",""result"":""yes""},{""numbers"":[2,4,6],""theory"":""246"",""result"":""yes""}]",0,"[{""numbers"":[2,4,6],""theory"":""Given example"",""result"":""yes""}]",1,"[{""numbers"":[2,4,6],""theory"":""246"",""result"":""yes""}]","246","246",65,99,15046.799999997,35423,"246",NA,NA,NA,NA,NA,1,3,4,1,0,1,3,0,0,1,0,0,3,3,3,0,0,2,3,0,2,0,2,0,3,0,2,3,0,0,3,0,3,0,2,2,2,0,1,0,"other","I have read this",0.464285714285714,0.05,0.416666666666667,0.75,0.833333333333333,1,0,0,0.25,0.208333333333333,0.916666666666667,0.291666666666667,101,0.8125,0.999992,0.230769230769231,0.090176630349088,"low","high","low","low","high",0.995,0.93,-0.234166666666667,-0.103541666666667,0.188958333333333,0.0675,-0.261666666666667,"4",0.146207938608172,0.133538908370217,0.191376112159957,0.107553196919102,1,1,3,0.715187358823565,-0.68182097831056,-0.861834875952976,-0.333,-0.163571428571429,-1.23055208014026,-1.28736779046743,-0.903932826187412,-0.611550353416964,0.891838405794408,0.291347661837388,-1.126762627821,0.99,-0.0649999999999999,0,0
"b75_y05_r20","657f5c2d51e703ef98eede73","SHADESEED",5,1,16305.699999996,99,100,0,33,1,"[{""numbers"":[2,4,6],""theory"":""Given example"",""result"":""yes""},{""numbers"":[2,4,6],""theory"":""246"",""result"":""yes""}]",0,"[{""numbers"":[2,4,6],""theory"":""Given example"",""result"":""yes""}]",1,"[{""numbers"":[2,4,6],""theory"":""246"",""result"":""yes""}]","246","246",65,99,15046.799999997,35423,"246",NA,NA,NA,NA,NA,1,3,4,1,0,1,3,0,0,1,0,0,3,3,3,0,0,2,3,0,2,0,2,0,3,0,2,3,0,0,3,0,3,0,2,2,2,0,1,0,"other","I have read this",0.464285714285714,0.05,0.416666666666667,0.75,0.833333333333333,1,0,0,0.25,0.208333333333333,0.916666666666667,0.291666666666667,101,0.999703791469194,1,0.0666666666666667,0.000128660786573724,"low","high","low","low","high",0.995,1,-0.234166666666667,-0.103541666666667,0.188958333333333,0.0675,-0.261666666666667,"5",0.146207938608172,0.133538908370217,0.191376112159957,0.107553196919102,1,0,NA,0.715187358823565,-0.68182097831056,-0.861834875952976,-0.333,-0.163571428571429,-1.23055208014026,-1.28736779046743,-0.903932826187412,-0.611550353416964,0.891838405794408,0.291347661837388,-1.126762627821,0.99,0.005,0,0
"b25_y55_r20","657f5c2d51e703ef98eede73","STRONGLEAF",7,1,21551.5,93,83,10,36,1,"[{""numbers"":[2,4,6],""theory"":""Given example"",""result"":""yes""},{""numbers"":[2,4,6],""theory"":""246"",""result"":""yes""}]",0,"[{""numbers"":[2,4,6],""theory"":""Given example"",""result"":""yes""}]",1,"[{""numbers"":[2,4,6],""theory"":""246"",""result"":""yes""}]","246","246",65,99,15046.799999997,35423,"246",NA,NA,NA,NA,NA,1,3,4,1,0,1,3,0,0,1,0,0,3,3,3,0,0,2,3,0,2,0,2,0,3,0,2,3,0,0,3,0,3,0,2,2,2,0,1,0,"other","I have read this",0.464285714285714,0.05,0.416666666666667,0.75,0.833333333333333,1,0,0,0.25,0.208333333333333,0.916666666666667,0.291666666666667,101,0.828767123287671,0.9141484,0.454545454545455,0.081567485467987,"low","high","low","low","high",0.965,0.915,-0.234166666666667,-0.103541666666667,0.188958333333333,0.0675,-0.261666666666667,"6",0.146207938608172,0.133538908370217,0.191376112159957,0.107553196919102,1,1,10,0.715187358823565,-0.68182097831056,-0.861834875952976,-0.333,-0.163571428571429,-1.23055208014026,-1.28736779046743,-0.903932826187412,-0.611550353416964,0.891838405794408,0.291347661837388,-1.126762627821,0.93,-0.0499999999999999,0,0
"b50_y30_r20","657f5c2d51e703ef98eede73","HARVESTWELL",10,1,30514.600000001,65,83,90,39,1,"[{""numbers"":[2,4,6],""theory"":""Given example"",""result"":""yes""},{""numbers"":[2,4,6],""theory"":""246"",""result"":""yes""}]",0,"[{""numbers"":[2,4,6],""theory"":""Given example"",""result"":""yes""}]",1,"[{""numbers"":[2,4,6],""theory"":""246"",""result"":""yes""}]","246","246",65,99,15046.799999997,35423,"246",NA,NA,NA,NA,NA,1,3,4,1,0,1,3,0,0,1,0,0,3,3,3,0,0,2,3,0,2,0,2,0,3,0,2,3,0,0,3,0,3,0,2,2,2,0,1,0,"other","I have read this",0.464285714285714,0.05,0.416666666666667,0.75,0.833333333333333,1,0,0,0.25,0.208333333333333,0.916666666666667,0.291666666666667,101,0.735294117647059,0.8223684,0.6,0.133538908370217,"low","high","low","low","high",0.825,0.915,-0.234166666666667,-0.103541666666667,0.188958333333333,0.0675,-0.261666666666667,"7",0.146207938608172,0.133538908370217,0.191376112159957,0.107553196919102,1,1,90,0.715187358823565,-0.68182097831056,-0.861834875952976,-0.333,-0.163571428571429,-1.23055208014026,-1.28736779046743,-0.903932826187412,-0.611550353416964,0.891838405794408,0.291347661837388,-1.126762627821,0.65,0.0900000000000001,0,0
"b15_y65_r20","658121a04136c30adcc5c7ad","GOLDLEAF",20,1,81480.300000191,75,100,0,27,7,"[{""numbers"":[2,4,6],""theory"":""Given example"",""result"":""yes""},{""numbers"":[3,5,7],""theory"":""Maybe it activates by adding 1 to each number from the previous set."",""result"":""yes""},{""numbers"":[6,10,14],""theory"":""Maybe it activates by doubling each number from the previous set."",""result"":""yes""},{""numbers"":[5,9,13],""theory"":""Maybe it activates by reducing each number by 1 from the previous set."",""result"":""yes""},{""numbers"":[10,18,26],""theory"":""Maybe it activates by multiplying each number from the previous set."",""result"":""yes""},{""numbers"":[2,4,6],""theory"":""Original tested number set"",""result"":""yes""},{""numbers"":[3,5,7],""theory"":""Added one digit to each number from previous set"",""result"":""yes""},{""numbers"":[6,10,14],""theory"":""Doubled each number from previous set"",""result"":""yes""}]",4,"[{""numbers"":[2,4,6],""theory"":""Given example"",""result"":""yes""},{""numbers"":[3,5,7],""theory"":""Maybe it activates by adding 1 to each number from the previous set."",""result"":""yes""},{""numbers"":[6,10,14],""theory"":""Maybe it activates by doubling each number from the previous set."",""result"":""yes""},{""numbers"":[5,9,13],""theory"":""Maybe it activates by reducing each number by 1 from the previous set."",""result"":""yes""},{""numbers"":[10,18,26],""theory"":""Maybe it activates by multiplying each number from the previous set."",""result"":""yes""}]",3,"[{""numbers"":[2,4,6],""theory"":""Original tested number set"",""result"":""yes""},{""numbers"":[3,5,7],""theory"":""Added one digit to each number from previous set"",""result"":""yes""},{""numbers"":[6,10,14],""theory"":""Doubled each number from previous set"",""result"":""yes""}]","Added one digit to each number from the previous set; doubled the numbers from the previous set; reduced one number from each number from the previous set; doubled the numbers again from each number from the previous set","Original set-added one digit to each number-doubled each number",95,80,154520.70000076,56485.600000381,"Maybe it activates with plus 2 on each number","Maybe it activates with plus 1 on each number","Maybe it activates by multiplying each number from the previous set of numbers","Maybe it activates by reducing the number by 1 from the previous set",NA,NA,2,3,4,2,2,4,3,2,1,2,2,1,3,2,3,0,0,0,3,0,3,0,3,0,3,0,3,3,0,1,3,0,3,0,3,3,2,1,2,1,"other","I have read this",0.714285714285714,0.4,0.25,1,1,1,0,0,0.5,0.125,1,0.583333333333333,102,0.999991956969303,0.999992,0.230769230769231,3.49305789699269e-06,"high","high","low","low","high",0.875,1,0.0575,-0.186875,0.272291666666667,0.3175,-0.0116666666666667,"1",0.0470635586793338,0.0849335749367161,0.109791742622415,0.0619584472195297,4,0,NA,1.40831777565567,-0.996942259736198,-0.136886734834613,0.017,0.0864285714285714,0.302164033913444,0.0657214787926318,0.477623895059724,-1.1037437968109,1.28515192543913,1.37041307604993,-0.0502378241703631,0.75,0.125,0,0
"b35_y45_r20","658121a04136c30adcc5c7ad","MAIZELEAF",20,1,62874.800000191,50,60,0,30,7,"[{""numbers"":[2,4,6],""theory"":""Given example"",""result"":""yes""},{""numbers"":[3,5,7],""theory"":""Maybe it activates by adding 1 to each number from the previous set."",""result"":""yes""},{""numbers"":[6,10,14],""theory"":""Maybe it activates by doubling each number from the previous set."",""result"":""yes""},{""numbers"":[5,9,13],""theory"":""Maybe it activates by reducing each number by 1 from the previous set."",""result"":""yes""},{""numbers"":[10,18,26],""theory"":""Maybe it activates by multiplying each number from the previous set."",""result"":""yes""},{""numbers"":[2,4,6],""theory"":""Original tested number set"",""result"":""yes""},{""numbers"":[3,5,7],""theory"":""Added one digit to each number from previous set"",""result"":""yes""},{""numbers"":[6,10,14],""theory"":""Doubled each number from previous set"",""result"":""yes""}]",4,"[{""numbers"":[2,4,6],""theory"":""Given example"",""result"":""yes""},{""numbers"":[3,5,7],""theory"":""Maybe it activates by adding 1 to each number from the previous set."",""result"":""yes""},{""numbers"":[6,10,14],""theory"":""Maybe it activates by doubling each number from the previous set."",""result"":""yes""},{""numbers"":[5,9,13],""theory"":""Maybe it activates by reducing each number by 1 from the previous set."",""result"":""yes""},{""numbers"":[10,18,26],""theory"":""Maybe it activates by multiplying each number from the previous set."",""result"":""yes""}]",3,"[{""numbers"":[2,4,6],""theory"":""Original tested number set"",""result"":""yes""},{""numbers"":[3,5,7],""theory"":""Added one digit to each number from previous set"",""result"":""yes""},{""numbers"":[6,10,14],""theory"":""Doubled each number from previous set"",""result"":""yes""}]","Added one digit to each number from the previous set; doubled the numbers from the previous set; reduced one number from each number from the previous set; doubled the numbers again from each number from the previous set","Original set-added one digit to each number-doubled each number",95,80,154520.70000076,56485.600000381,"Maybe it activates with plus 2 on each number","Maybe it activates with plus 1 on each number","Maybe it activates by multiplying each number from the previous set of numbers","Maybe it activates by reducing the number by 1 from the previous set",NA,NA,2,3,4,2,2,4,3,2,1,2,2,1,3,2,3,0,0,0,3,0,3,0,3,0,3,0,3,3,0,1,3,0,3,0,3,3,2,1,2,1,"other","I have read this",0.714285714285714,0.4,0.25,1,1,1,0,0,0.5,0.125,1,0.583333333333333,102,0.623076923076923,0.6230769,0.777777777777778,0.205458333428187,"high","high","low","low","high",0.75,0.8,0.0575,-0.186875,0.272291666666667,0.3175,-0.0116666666666667,"2",0.0470635586793338,0.0849335749367161,0.109791742622415,0.0619584472195297,4,0,NA,1.40831777565567,-0.996942259736198,-0.136886734834613,0.017,0.0864285714285714,0.302164033913444,0.0657214787926318,0.477623895059724,-1.1037437968109,1.28515192543913,1.37041307604993,-0.0502378241703631,0.5,0.05,0,0
"b75_y05_r20","658121a04136c30adcc5c7ad","SHADESEED",20,1,60774.5,95,100,0,33,7,"[{""numbers"":[2,4,6],""theory"":""Given example"",""result"":""yes""},{""numbers"":[3,5,7],""theory"":""Maybe it activates by adding 1 to each number from the previous set."",""result"":""yes""},{""numbers"":[6,10,14],""theory"":""Maybe it activates by doubling each number from the previous set."",""result"":""yes""},{""numbers"":[5,9,13],""theory"":""Maybe it activates by reducing each number by 1 from the previous set."",""result"":""yes""},{""numbers"":[10,18,26],""theory"":""Maybe it activates by multiplying each number from the previous set."",""result"":""yes""},{""numbers"":[2,4,6],""theory"":""Original tested number set"",""result"":""yes""},{""numbers"":[3,5,7],""theory"":""Added one digit to each number from previous set"",""result"":""yes""},{""numbers"":[6,10,14],""theory"":""Doubled each number from previous set"",""result"":""yes""}]",4,"[{""numbers"":[2,4,6],""theory"":""Given example"",""result"":""yes""},{""numbers"":[3,5,7],""theory"":""Maybe it activates by adding 1 to each number from the previous set."",""result"":""yes""},{""numbers"":[6,10,14],""theory"":""Maybe it activates by doubling each number from the previous set."",""result"":""yes""},{""numbers"":[5,9,13],""theory"":""Maybe it activates by reducing each number by 1 from the previous set."",""result"":""yes""},{""numbers"":[10,18,26],""theory"":""Maybe it activates by multiplying each number from the previous set."",""result"":""yes""}]",3,"[{""numbers"":[2,4,6],""theory"":""Original tested number set"",""result"":""yes""},{""numbers"":[3,5,7],""theory"":""Added one digit to each number from previous set"",""result"":""yes""},{""numbers"":[6,10,14],""theory"":""Doubled each number from previous set"",""result"":""yes""}]","Added one digit to each number from the previous set; doubled the numbers from the previous set; reduced one number from each number from the previous set; doubled the numbers again from each number from the previous set","Original set-added one digit to each number-doubled each number",95,80,154520.70000076,56485.600000381,"Maybe it activates with plus 2 on each number","Maybe it activates with plus 1 on each number","Maybe it activates by multiplying each number from the previous set of numbers","Maybe it activates by reducing the number by 1 from the previous set",NA,NA,2,3,4,2,2,4,3,2,1,2,2,1,3,2,3,0,0,0,3,0,3,0,3,0,3,0,3,3,0,1,3,0,3,0,3,3,2,1,2,1,"other","I have read this",0.714285714285714,0.4,0.25,1,1,1,0,0,0.5,0.125,1,0.583333333333333,102,0.999999999999992,1,0.0666666666666667,3.32692975960885e-15,"high","high","low","low","high",0.975,1,0.0575,-0.186875,0.272291666666667,0.3175,-0.0116666666666667,"3",0.0470635586793338,0.0849335749367161,0.109791742622415,0.0619584472195297,4,0,NA,1.40831777565567,-0.996942259736198,-0.136886734834613,0.017,0.0864285714285714,0.302164033913444,0.0657214787926318,0.477623895059724,-1.1037437968109,1.28515192543913,1.37041307604993,-0.0502378241703631,0.95,0.025,0,0
"b70_y10_r20","658121a04136c30adcc5c7ad","WAKESOIL",20,1,60492.300000191,80,90,0,36,7,"[{""numbers"":[2,4,6],""theory"":""Given example"",""result"":""yes""},{""numbers"":[3,5,7],""theory"":""Maybe it activates by adding 1 to each number from the previous set."",""result"":""yes""},{""numbers"":[6,10,14],""theory"":""Maybe it activates by doubling each number from the previous set."",""result"":""yes""},{""numbers"":[5,9,13],""theory"":""Maybe it activates by reducing each number by 1 from the previous set."",""result"":""yes""},{""numbers"":[10,18,26],""theory"":""Maybe it activates by multiplying each number from the previous set."",""result"":""yes""},{""numbers"":[2,4,6],""theory"":""Original tested number set"",""result"":""yes""},{""numbers"":[3,5,7],""theory"":""Added one digit to each number from previous set"",""result"":""yes""},{""numbers"":[6,10,14],""theory"":""Doubled each number from previous set"",""result"":""yes""}]",4,"[{""numbers"":[2,4,6],""theory"":""Given example"",""result"":""yes""},{""numbers"":[3,5,7],""theory"":""Maybe it activates by adding 1 to each number from the previous set."",""result"":""yes""},{""numbers"":[6,10,14],""theory"":""Maybe it activates by doubling each number from the previous set."",""result"":""yes""},{""numbers"":[5,9,13],""theory"":""Maybe it activates by reducing each number by 1 from the previous set."",""result"":""yes""},{""numbers"":[10,18,26],""theory"":""Maybe it activates by multiplying each number from the previous set."",""result"":""yes""}]",3,"[{""numbers"":[2,4,6],""theory"":""Original tested number set"",""result"":""yes""},{""numbers"":[3,5,7],""theory"":""Added one digit to each number from previous set"",""result"":""yes""},{""numbers"":[6,10,14],""theory"":""Doubled each number from previous set"",""result"":""yes""}]","Added one digit to each number from the previous set; doubled the numbers from the previous set; reduced one number from each number from the previous set; doubled the numbers again from each number from the previous set","Original set-added one digit to each number-doubled each number",95,80,154520.70000076,56485.600000381,"Maybe it activates with plus 2 on each number","Maybe it activates with plus 1 on each number","Maybe it activates by multiplying each number from the previous set of numbers","Maybe it activates by reducing the number by 1 from the previous set",NA,NA,2,3,4,2,2,4,3,2,1,2,2,1,3,2,3,0,0,0,3,0,3,0,3,0,3,0,3,3,0,1,3,0,3,0,3,3,2,1,2,1,"other","I have read this",0.714285714285714,0.4,0.25,1,1,1,0,0,0.5,0.125,1,0.583333333333333,102,0.999999996459867,1,0.142857142857143,1.53746031086304e-09,"high","high","low","low","high",0.9,0.95,0.0575,-0.186875,0.272291666666667,0.3175,-0.0116666666666667,"4",0.0470635586793338,0.0849335749367161,0.109791742622415,0.0619584472195297,4,0,NA,1.40831777565567,-0.996942259736198,-0.136886734834613,0.017,0.0864285714285714,0.302164033913444,0.0657214787926318,0.477623895059724,-1.1037437968109,1.28515192543913,1.37041307604993,-0.0502378241703631,0.8,0.0499999999999999,0,0
"b20_y60_r20","658121a04136c30adcc5c7ad","TALLGRAIN",20,1,57446.399999619,65,85,0,39,7,"[{""numbers"":[2,4,6],""theory"":""Given example"",""result"":""yes""},{""numbers"":[3,5,7],""theory"":""Maybe it activates by adding 1 to each number from the previous set."",""result"":""yes""},{""numbers"":[6,10,14],""theory"":""Maybe it activates by doubling each number from the previous set."",""result"":""yes""},{""numbers"":[5,9,13],""theory"":""Maybe it activates by reducing each number by 1 from the previous set."",""result"":""yes""},{""numbers"":[10,18,26],""theory"":""Maybe it activates by multiplying each number from the previous set."",""result"":""yes""},{""numbers"":[2,4,6],""theory"":""Original tested number set"",""result"":""yes""},{""numbers"":[3,5,7],""theory"":""Added one digit to each number from previous set"",""result"":""yes""},{""numbers"":[6,10,14],""theory"":""Doubled each number from previous set"",""result"":""yes""}]",4,"[{""numbers"":[2,4,6],""theory"":""Given example"",""result"":""yes""},{""numbers"":[3,5,7],""theory"":""Maybe it activates by adding 1 to each number from the previous set."",""result"":""yes""},{""numbers"":[6,10,14],""theory"":""Maybe it activates by doubling each number from the previous set."",""result"":""yes""},{""numbers"":[5,9,13],""theory"":""Maybe it activates by reducing each number by 1 from the previous set."",""result"":""yes""},{""numbers"":[10,18,26],""theory"":""Maybe it activates by multiplying each number from the previous set."",""result"":""yes""}]",3,"[{""numbers"":[2,4,6],""theory"":""Original tested number set"",""result"":""yes""},{""numbers"":[3,5,7],""theory"":""Added one digit to each number from previous set"",""result"":""yes""},{""numbers"":[6,10,14],""theory"":""Doubled each number from previous set"",""result"":""yes""}]","Added one digit to each number from the previous set; doubled the numbers from the previous set; reduced one number from each number from the previous set; doubled the numbers again from each number from the previous set","Original set-added one digit to each number-doubled each number",95,80,154520.70000076,56485.600000381,"Maybe it activates with plus 2 on each number","Maybe it activates with plus 1 on each number","Maybe it activates by multiplying each number from the previous set of numbers","Maybe it activates by reducing the number by 1 from the previous set",NA,NA,2,3,4,2,2,4,3,2,1,2,2,1,3,2,3,0,0,0,3,0,3,0,3,0,3,0,3,3,0,1,3,0,3,0,3,3,2,1,2,1,"other","I have read this",0.714285714285714,0.4,0.25,1,1,1,0,0,0.5,0.125,1,0.583333333333333,102,0.999847607436757,0.9998476,0.333333333333333,6.61882927294032e-05,"high","high","low","low","high",0.825,0.925,0.0575,-0.186875,0.272291666666667,0.3175,-0.0116666666666667,"5",0.0470635586793338,0.0849335749367161,0.109791742622415,0.0619584472195297,4,0,NA,1.40831777565567,-0.996942259736198,-0.136886734834613,0.017,0.0864285714285714,0.302164033913444,0.0657214787926318,0.477623895059724,-1.1037437968109,1.28515192543913,1.37041307604993,-0.0502378241703631,0.65,0.1,0,0
"b50_y30_r20","658121a04136c30adcc5c7ad","HARVESTWELL",20,1,66210.800000191,50,65,0,42,7,"[{""numbers"":[2,4,6],""theory"":""Given example"",""result"":""yes""},{""numbers"":[3,5,7],""theory"":""Maybe it activates by adding 1 to each number from the previous set."",""result"":""yes""},{""numbers"":[6,10,14],""theory"":""Maybe it activates by doubling each number from the previous set."",""result"":""yes""},{""numbers"":[5,9,13],""theory"":""Maybe it activates by reducing each number by 1 from the previous set."",""result"":""yes""},{""numbers"":[10,18,26],""theory"":""Maybe it activates by multiplying each number from the previous set."",""result"":""yes""},{""numbers"":[2,4,6],""theory"":""Original tested number set"",""result"":""yes""},{""numbers"":[3,5,7],""theory"":""Added one digit to each number from previous set"",""result"":""yes""},{""numbers"":[6,10,14],""theory"":""Doubled each number from previous set"",""result"":""yes""}]",4,"[{""numbers"":[2,4,6],""theory"":""Given example"",""result"":""yes""},{""numbers"":[3,5,7],""theory"":""Maybe it activates by adding 1 to each number from the previous set."",""result"":""yes""},{""numbers"":[6,10,14],""theory"":""Maybe it activates by doubling each number from the previous set."",""result"":""yes""},{""numbers"":[5,9,13],""theory"":""Maybe it activates by reducing each number by 1 from the previous set."",""result"":""yes""},{""numbers"":[10,18,26],""theory"":""Maybe it activates by multiplying each number from the previous set."",""result"":""yes""}]",3,"[{""numbers"":[2,4,6],""theory"":""Original tested number set"",""result"":""yes""},{""numbers"":[3,5,7],""theory"":""Added one digit to each number from previous set"",""result"":""yes""},{""numbers"":[6,10,14],""theory"":""Doubled each number from previous set"",""result"":""yes""}]","Added one digit to each number from the previous set; doubled the numbers from the previous set; reduced one number from each number from the previous set; doubled the numbers again from each number from the previous set","Original set-added one digit to each number-doubled each number",95,80,154520.70000076,56485.600000381,"Maybe it activates with plus 2 on each number","Maybe it activates with plus 1 on each number","Maybe it activates by multiplying each number from the previous set of numbers","Maybe it activates by reducing the number by 1 from the previous set",NA,NA,2,3,4,2,2,4,3,2,1,2,2,1,3,2,3,0,0,0,3,0,3,0,3,0,3,0,3,3,0,1,3,0,3,0,3,3,2,1,2,1,"other","I have read this",0.714285714285714,0.4,0.25,1,1,1,0,0,0.5,0.125,1,0.583333333333333,102,0.822368421052632,0.8223684,0.6,0.0849335749367161,"high","high","low","low","high",0.75,0.825,0.0575,-0.186875,0.272291666666667,0.3175,-0.0116666666666667,"6",0.0470635586793338,0.0849335749367161,0.109791742622415,0.0619584472195297,4,0,NA,1.40831777565567,-0.996942259736198,-0.136886734834613,0.017,0.0864285714285714,0.302164033913444,0.0657214787926318,0.477623895059724,-1.1037437968109,1.28515192543913,1.37041307604993,-0.0502378241703631,0.5,0.075,0,0
"b25_y55_r20","658121a04136c30adcc5c7ad","STRONGLEAF",20,1,63148.199999809,60,70,0,45,7,"[{""numbers"":[2,4,6],""theory"":""Given example"",""result"":""yes""},{""numbers"":[3,5,7],""theory"":""Maybe it activates by adding 1 to each number from the previous set."",""result"":""yes""},{""numbers"":[6,10,14],""theory"":""Maybe it activates by doubling each number from the previous set."",""result"":""yes""},{""numbers"":[5,9,13],""theory"":""Maybe it activates by reducing each number by 1 from the previous set."",""result"":""yes""},{""numbers"":[10,18,26],""theory"":""Maybe it activates by multiplying each number from the previous set."",""result"":""yes""},{""numbers"":[2,4,6],""theory"":""Original tested number set"",""result"":""yes""},{""numbers"":[3,5,7],""theory"":""Added one digit to each number from previous set"",""result"":""yes""},{""numbers"":[6,10,14],""theory"":""Doubled each number from previous set"",""result"":""yes""}]",4,"[{""numbers"":[2,4,6],""theory"":""Given example"",""result"":""yes""},{""numbers"":[3,5,7],""theory"":""Maybe it activates by adding 1 to each number from the previous set."",""result"":""yes""},{""numbers"":[6,10,14],""theory"":""Maybe it activates by doubling each number from the previous set."",""result"":""yes""},{""numbers"":[5,9,13],""theory"":""Maybe it activates by reducing each number by 1 from the previous set."",""result"":""yes""},{""numbers"":[10,18,26],""theory"":""Maybe it activates by multiplying each number from the previous set."",""result"":""yes""}]",3,"[{""numbers"":[2,4,6],""theory"":""Original tested number set"",""result"":""yes""},{""numbers"":[3,5,7],""theory"":""Added one digit to each number from previous set"",""result"":""yes""},{""numbers"":[6,10,14],""theory"":""Doubled each number from previous set"",""result"":""yes""}]","Added one digit to each number from the previous set; doubled the numbers from the previous set; reduced one number from each number from the previous set; doubled the numbers again from each number from the previous set","Original set-added one digit to each number-doubled each number",95,80,154520.70000076,56485.600000381,"Maybe it activates with plus 2 on each number","Maybe it activates with plus 1 on each number","Maybe it activates by multiplying each number from the previous set of numbers","Maybe it activates by reducing the number by 1 from the previous set",NA,NA,2,3,4,2,2,4,3,2,1,2,2,1,3,2,3,0,0,0,3,0,3,0,3,0,3,0,3,3,0,1,3,0,3,0,3,3,2,1,2,1,"other","I have read this",0.714285714285714,0.4,0.25,1,1,1,0,0,0.5,0.125,1,0.583333333333333,102,0.914148351648352,0.9141484,0.454545454545455,0.0389833195023433,"high","high","low","low","high",0.8,0.85,0.0575,-0.186875,0.272291666666667,0.3175,-0.0116666666666667,"7",0.0470635586793338,0.0849335749367161,0.109791742622415,0.0619584472195297,4,0,NA,1.40831777565567,-0.996942259736198,-0.136886734834613,0.017,0.0864285714285714,0.302164033913444,0.0657214787926318,0.477623895059724,-1.1037437968109,1.28515192543913,1.37041307604993,-0.0502378241703631,0.6,0.0499999999999999,0,0
"b25_y55_r20","659b09f072b30c6e45306073","STRONGLEAF",16,1,102061.10000002,66,92,0,26,6,"[{""numbers"":[2,4,6],""theory"":""Given example"",""result"":""yes""},{""numbers"":[8,10,12],""theory"":""Because they are even numbers"",""result"":""yes""},{""numbers"":[14,16,18],""theory"":""Because they are the next set of even numbers to prior set that set the rule."",""result"":""yes""},{""numbers"":[16,18,20],""theory"":""Because they are even numbers."",""result"":""yes""},{""numbers"":[18,20,22],""theory"":""Because they are even numbers"",""result"":""yes""},{""numbers"":[1,3,5],""theory"":""Because they are odd numbers in sequence"",""result"":""yes""},{""numbers"":[7,9,11],""theory"":""because they are odd numbers in sequence"",""result"":""yes""}]",4,"[{""numbers"":[2,4,6],""theory"":""Given example"",""result"":""yes""},{""numbers"":[8,10,12],""theory"":""Because they are even numbers"",""result"":""yes""},{""numbers"":[14,16,18],""theory"":""Because they are the next set of even numbers to prior set that set the rule."",""result"":""yes""},{""numbers"":[16,18,20],""theory"":""Because they are even numbers."",""result"":""yes""},{""numbers"":[18,20,22],""theory"":""Because they are even numbers"",""result"":""yes""}]",2,"[{""numbers"":[1,3,5],""theory"":""Because they are odd numbers in sequence"",""result"":""yes""},{""numbers"":[7,9,11],""theory"":""because they are odd numbers in sequence"",""result"":""yes""}]","Even numbers in sequence.","Numbers in sequence",68,77,261406.5,81180.599999905,"8-10-12","10-12-14","12-14-16","16-18-20","3-5-7","9-11-13",2,3,3,3,3,3,4,0,0,0,0,1,3,3,3,0,0,2,3,3,3,0,3,0,3,0,3,3,0,2,3,0,3,0,3,3,1,0,0,0,"other","I have read this",0.75,0.05,0.583333333333333,1,1,1,0.25,0,0.0833333333333333,0.416666666666667,1,0.458333333333333,103,0.959059347569763,0.9141484,0.454545454545455,0.0181545174126781,"low","high","high","low","high",0.83,0.96,-0.0675000000000001,0.104791666666667,0.272291666666667,0.3175,-0.428333333333333,"1",0.0440880260678647,0.0849335749367161,0.102848808592527,0.0515440461746971,6,0,NA,1.63329477044997,0.80833667943981,-1.56461756973299,-0.333,0.122142857142857,-0.354714300680999,-1.28736779046743,0.674989140952172,0.618933255067873,1.28515192543913,1.37041307604993,-1.84444583025475,0.66,0.13,0,0
"b50_y30_r20","659b09f072b30c6e45306073","HARVESTWELL",20,1,82682.799999952,70,86,0,29,6,"[{""numbers"":[2,4,6],""theory"":""Given example"",""result"":""yes""},{""numbers"":[8,10,12],""theory"":""Because they are even numbers"",""result"":""yes""},{""numbers"":[14,16,18],""theory"":""Because they are the next set of even numbers to prior set that set the rule."",""result"":""yes""},{""numbers"":[16,18,20],""theory"":""Because they are even numbers."",""result"":""yes""},{""numbers"":[18,20,22],""theory"":""Because they are even numbers"",""result"":""yes""},{""numbers"":[1,3,5],""theory"":""Because they are odd numbers in sequence"",""result"":""yes""},{""numbers"":[7,9,11],""theory"":""because they are odd numbers in sequence"",""result"":""yes""}]",4,"[{""numbers"":[2,4,6],""theory"":""Given example"",""result"":""yes""},{""numbers"":[8,10,12],""theory"":""Because they are even numbers"",""result"":""yes""},{""numbers"":[14,16,18],""theory"":""Because they are the next set of even numbers to prior set that set the rule."",""result"":""yes""},{""numbers"":[16,18,20],""theory"":""Because they are even numbers."",""result"":""yes""},{""numbers"":[18,20,22],""theory"":""Because they are even numbers"",""result"":""yes""}]",2,"[{""numbers"":[1,3,5],""theory"":""Because they are odd numbers in sequence"",""result"":""yes""},{""numbers"":[7,9,11],""theory"":""because they are odd numbers in sequence"",""result"":""yes""}]","Even numbers in sequence.","Numbers in sequence",68,77,261406.5,81180.599999905,"8-10-12","10-12-14","12-14-16","16-18-20","3-5-7","9-11-13",2,3,3,3,3,3,4,0,0,0,0,1,3,3,3,0,0,2,3,3,3,0,3,0,3,0,3,3,0,2,3,0,3,0,3,3,1,0,0,0,"other","I have read this",0.75,0.05,0.583333333333333,1,1,1,0.25,0,0.0833333333333333,0.416666666666667,1,0.458333333333333,103,0.822368421052632,0.8223684,0.6,0.0849335749367161,"low","high","high","low","high",0.85,0.93,-0.0675000000000001,0.104791666666667,0.272291666666667,0.3175,-0.428333333333333,"2",0.0440880260678647,0.0849335749367161,0.102848808592527,0.0515440461746971,6,0,NA,1.63329477044997,0.80833667943981,-1.56461756973299,-0.333,0.122142857142857,-0.354714300680999,-1.28736779046743,0.674989140952172,0.618933255067873,1.28515192543913,1.37041307604993,-1.84444583025475,0.7,0.0800000000000001,0,0
"b75_y05_r20","659b09f072b30c6e45306073","SHADESEED",17,1,63323,68,74,0,32,6,"[{""numbers"":[2,4,6],""theory"":""Given example"",""result"":""yes""},{""numbers"":[8,10,12],""theory"":""Because they are even numbers"",""result"":""yes""},{""numbers"":[14,16,18],""theory"":""Because they are the next set of even numbers to prior set that set the rule."",""result"":""yes""},{""numbers"":[16,18,20],""theory"":""Because they are even numbers."",""result"":""yes""},{""numbers"":[18,20,22],""theory"":""Because they are even numbers"",""result"":""yes""},{""numbers"":[1,3,5],""theory"":""Because they are odd numbers in sequence"",""result"":""yes""},{""numbers"":[7,9,11],""theory"":""because they are odd numbers in sequence"",""result"":""yes""}]",4,"[{""numbers"":[2,4,6],""theory"":""Given example"",""result"":""yes""},{""numbers"":[8,10,12],""theory"":""Because they are even numbers"",""result"":""yes""},{""numbers"":[14,16,18],""theory"":""Because they are the next set of even numbers to prior set that set the rule."",""result"":""yes""},{""numbers"":[16,18,20],""theory"":""Because they are even numbers."",""result"":""yes""},{""numbers"":[18,20,22],""theory"":""Because they are even numbers"",""result"":""yes""}]",2,"[{""numbers"":[1,3,5],""theory"":""Because they are odd numbers in sequence"",""result"":""yes""},{""numbers"":[7,9,11],""theory"":""because they are odd numbers in sequence"",""result"":""yes""}]","Even numbers in sequence.","Numbers in sequence",68,77,261406.5,81180.599999905,"8-10-12","10-12-14","12-14-16","16-18-20","3-5-7","9-11-13",2,3,3,3,3,3,4,0,0,0,0,1,3,3,3,0,0,2,3,3,3,0,3,0,3,0,3,3,0,2,3,0,3,0,3,3,1,0,0,0,"other","I have read this",0.75,0.05,0.583333333333333,1,1,1,0.25,0,0.0833333333333333,0.416666666666667,1,0.458333333333333,103,0.999999999973988,1,0.0666666666666667,1.1296999838072e-11,"low","high","high","low","high",0.84,0.87,-0.0675000000000001,0.104791666666667,0.272291666666667,0.3175,-0.428333333333333,"3",0.0440880260678647,0.0849335749367161,0.102848808592527,0.0515440461746971,6,0,NA,1.63329477044997,0.80833667943981,-1.56461756973299,-0.333,0.122142857142857,-0.354714300680999,-1.28736779046743,0.674989140952172,0.618933255067873,1.28515192543913,1.37041307604993,-1.84444583025475,0.68,0.03,0,0
"b15_y65_r20","659b09f072b30c6e45306073","GOLDLEAF",18,1,57855.799999952,80,91,0,35,6,"[{""numbers"":[2,4,6],""theory"":""Given example"",""result"":""yes""},{""numbers"":[8,10,12],""theory"":""Because they are even numbers"",""result"":""yes""},{""numbers"":[14,16,18],""theory"":""Because they are the next set of even numbers to prior set that set the rule."",""result"":""yes""},{""numbers"":[16,18,20],""theory"":""Because they are even numbers."",""result"":""yes""},{""numbers"":[18,20,22],""theory"":""Because they are even numbers"",""result"":""yes""},{""numbers"":[1,3,5],""theory"":""Because they are odd numbers in sequence"",""result"":""yes""},{""numbers"":[7,9,11],""theory"":""because they are odd numbers in sequence"",""result"":""yes""}]",4,"[{""numbers"":[2,4,6],""theory"":""Given example"",""result"":""yes""},{""numbers"":[8,10,12],""theory"":""Because they are even numbers"",""result"":""yes""},{""numbers"":[14,16,18],""theory"":""Because they are the next set of even numbers to prior set that set the rule."",""result"":""yes""},{""numbers"":[16,18,20],""theory"":""Because they are even numbers."",""result"":""yes""},{""numbers"":[18,20,22],""theory"":""Because they are even numbers"",""result"":""yes""}]",2,"[{""numbers"":[1,3,5],""theory"":""Because they are odd numbers in sequence"",""result"":""yes""},{""numbers"":[7,9,11],""theory"":""because they are odd numbers in sequence"",""result"":""yes""}]","Even numbers in sequence.","Numbers in sequence",68,77,261406.5,81180.599999905,"8-10-12","10-12-14","12-14-16","16-18-20","3-5-7","9-11-13",2,3,3,3,3,3,4,0,0,0,0,1,3,3,3,0,0,2,3,3,3,0,3,0,3,0,3,3,0,2,3,0,3,0,3,3,1,0,0,0,"other","I have read this",0.75,0.05,0.583333333333333,1,1,1,0.25,0,0.0833333333333333,0.416666666666667,1,0.458333333333333,103,0.999991956969303,0.999992,0.230769230769231,3.49305789699269e-06,"low","high","high","low","high",0.9,0.955,-0.0675000000000001,0.104791666666667,0.272291666666667,0.3175,-0.428333333333333,"4",0.0440880260678647,0.0849335749367161,0.102848808592527,0.0515440461746971,6,0,NA,1.63329477044997,0.80833667943981,-1.56461756973299,-0.333,0.122142857142857,-0.354714300680999,-1.28736779046743,0.674989140952172,0.618933255067873,1.28515192543913,1.37041307604993,-1.84444583025475,0.8,0.0549999999999999,0,0
"b70_y10_r20","659b09f072b30c6e45306073","WAKESOIL",18,1,55358.300000072,75,78,0,38,6,"[{""numbers"":[2,4,6],""theory"":""Given example"",""result"":""yes""},{""numbers"":[8,10,12],""theory"":""Because they are even numbers"",""result"":""yes""},{""numbers"":[14,16,18],""theory"":""Because they are the next set of even numbers to prior set that set the rule."",""result"":""yes""},{""numbers"":[16,18,20],""theory"":""Because they are even numbers."",""result"":""yes""},{""numbers"":[18,20,22],""theory"":""Because they are even numbers"",""result"":""yes""},{""numbers"":[1,3,5],""theory"":""Because they are odd numbers in sequence"",""result"":""yes""},{""numbers"":[7,9,11],""theory"":""because they are odd numbers in sequence"",""result"":""yes""}]",4,"[{""numbers"":[2,4,6],""theory"":""Given example"",""result"":""yes""},{""numbers"":[8,10,12],""theory"":""Because they are even numbers"",""result"":""yes""},{""numbers"":[14,16,18],""theory"":""Because they are the next set of even numbers to prior set that set the rule."",""result"":""yes""},{""numbers"":[16,18,20],""theory"":""Because they are even numbers."",""result"":""yes""},{""numbers"":[18,20,22],""theory"":""Because they are even numbers"",""result"":""yes""}]",2,"[{""numbers"":[1,3,5],""theory"":""Because they are odd numbers in sequence"",""result"":""yes""},{""numbers"":[7,9,11],""theory"":""because they are odd numbers in sequence"",""result"":""yes""}]","Even numbers in sequence.","Numbers in sequence",68,77,261406.5,81180.599999905,"8-10-12","10-12-14","12-14-16","16-18-20","3-5-7","9-11-13",2,3,3,3,3,3,4,0,0,0,0,1,3,3,3,0,0,2,3,3,3,0,3,0,3,0,3,3,0,2,3,0,3,0,3,3,1,0,0,0,"other","I have read this",0.75,0.05,0.583333333333333,1,1,1,0.25,0,0.0833333333333333,0.416666666666667,1,0.458333333333333,103,0.999999826533504,1,0.142857142857143,7.5335548325318e-08,"low","high","high","low","high",0.875,0.89,-0.0675000000000001,0.104791666666667,0.272291666666667,0.3175,-0.428333333333333,"5",0.0440880260678647,0.0849335749367161,0.102848808592527,0.0515440461746971,6,0,NA,1.63329477044997,0.80833667943981,-1.56461756973299,-0.333,0.122142857142857,-0.354714300680999,-1.28736779046743,0.674989140952172,0.618933255067873,1.28515192543913,1.37041307604993,-1.84444583025475,0.75,0.015,0,0
"b20_y60_r20","659b09f072b30c6e45306073","TALLGRAIN",20,1,68833.200000048,78,78,0,41,6,"[{""numbers"":[2,4,6],""theory"":""Given example"",""result"":""yes""},{""numbers"":[8,10,12],""theory"":""Because they are even numbers"",""result"":""yes""},{""numbers"":[14,16,18],""theory"":""Because they are the next set of even numbers to prior set that set the rule."",""result"":""yes""},{""numbers"":[16,18,20],""theory"":""Because they are even numbers."",""result"":""yes""},{""numbers"":[18,20,22],""theory"":""Because they are even numbers"",""result"":""yes""},{""numbers"":[1,3,5],""theory"":""Because they are odd numbers in sequence"",""result"":""yes""},{""numbers"":[7,9,11],""theory"":""because they are odd numbers in sequence"",""result"":""yes""}]",4,"[{""numbers"":[2,4,6],""theory"":""Given example"",""result"":""yes""},{""numbers"":[8,10,12],""theory"":""Because they are even numbers"",""result"":""yes""},{""numbers"":[14,16,18],""theory"":""Because they are the next set of even numbers to prior set that set the rule."",""result"":""yes""},{""numbers"":[16,18,20],""theory"":""Because they are even numbers."",""result"":""yes""},{""numbers"":[18,20,22],""theory"":""Because they are even numbers"",""result"":""yes""}]",2,"[{""numbers"":[1,3,5],""theory"":""Because they are odd numbers in sequence"",""result"":""yes""},{""numbers"":[7,9,11],""theory"":""because they are odd numbers in sequence"",""result"":""yes""}]","Even numbers in sequence.","Numbers in sequence",68,77,261406.5,81180.599999905,"8-10-12","10-12-14","12-14-16","16-18-20","3-5-7","9-11-13",2,3,3,3,3,3,4,0,0,0,0,1,3,3,3,0,0,2,3,3,3,0,3,0,3,0,3,3,0,2,3,0,3,0,3,3,1,0,0,0,"other","I have read this",0.75,0.05,0.583333333333333,1,1,1,0.25,0,0.0833333333333333,0.416666666666667,1,0.458333333333333,103,0.999847607436757,0.9998476,0.333333333333333,6.61882927294032e-05,"low","high","high","low","high",0.89,0.89,-0.0675000000000001,0.104791666666667,0.272291666666667,0.3175,-0.428333333333333,"6",0.0440880260678647,0.0849335749367161,0.102848808592527,0.0515440461746971,6,0,NA,1.63329477044997,0.80833667943981,-1.56461756973299,-0.333,0.122142857142857,-0.354714300680999,-1.28736779046743,0.674989140952172,0.618933255067873,1.28515192543913,1.37041307604993,-1.84444583025475,0.78,0,0,0
"b35_y45_r20","659b09f072b30c6e45306073","MAIZELEAF",20,1,71884.200000048,74,74,0,44,6,"[{""numbers"":[2,4,6],""theory"":""Given example"",""result"":""yes""},{""numbers"":[8,10,12],""theory"":""Because they are even numbers"",""result"":""yes""},{""numbers"":[14,16,18],""theory"":""Because they are the next set of even numbers to prior set that set the rule."",""result"":""yes""},{""numbers"":[16,18,20],""theory"":""Because they are even numbers."",""result"":""yes""},{""numbers"":[18,20,22],""theory"":""Because they are even numbers"",""result"":""yes""},{""numbers"":[1,3,5],""theory"":""Because they are odd numbers in sequence"",""result"":""yes""},{""numbers"":[7,9,11],""theory"":""because they are odd numbers in sequence"",""result"":""yes""}]",4,"[{""numbers"":[2,4,6],""theory"":""Given example"",""result"":""yes""},{""numbers"":[8,10,12],""theory"":""Because they are even numbers"",""result"":""yes""},{""numbers"":[14,16,18],""theory"":""Because they are the next set of even numbers to prior set that set the rule."",""result"":""yes""},{""numbers"":[16,18,20],""theory"":""Because they are even numbers."",""result"":""yes""},{""numbers"":[18,20,22],""theory"":""Because they are even numbers"",""result"":""yes""}]",2,"[{""numbers"":[1,3,5],""theory"":""Because they are odd numbers in sequence"",""result"":""yes""},{""numbers"":[7,9,11],""theory"":""because they are odd numbers in sequence"",""result"":""yes""}]","Even numbers in sequence.","Numbers in sequence",68,77,261406.5,81180.599999905,"8-10-12","10-12-14","12-14-16","16-18-20","3-5-7","9-11-13",2,3,3,3,3,3,4,0,0,0,0,1,3,3,3,0,0,2,3,3,3,0,3,0,3,0,3,3,0,2,3,0,3,0,3,3,1,0,0,0,"other","I have read this",0.75,0.05,0.583333333333333,1,1,1,0.25,0,0.0833333333333333,0.416666666666667,1,0.458333333333333,103,0.623076923076923,0.6230769,0.777777777777778,0.205458333428187,"low","high","high","low","high",0.87,0.87,-0.0675000000000001,0.104791666666667,0.272291666666667,0.3175,-0.428333333333333,"7",0.0440880260678647,0.0849335749367161,0.102848808592527,0.0515440461746971,6,0,NA,1.63329477044997,0.80833667943981,-1.56461756973299,-0.333,0.122142857142857,-0.354714300680999,-1.28736779046743,0.674989140952172,0.618933255067873,1.28515192543913,1.37041307604993,-1.84444583025475,0.74,0,0,0
"b15_y65_r20","65a7027c88eae2b9a68ae596","GOLDLEAF",7,1,141981.19999999,75,80,30,20,0,"[{""numbers"":[2,4,6],""theory"":""Given example"",""result"":""yes""}]",0,"[{""numbers"":[2,4,6],""theory"":""Given example"",""result"":""yes""}]",0,"[]","Add 2 to the each number in the pattern","list all positive even numbers",88,80,27585.899999976,9887.3000000119,"add 2 each number","list every even number beginning with 2","list all positve multiples of 2",NA,NA,NA,2,3,3,2,2,1,1,1,1,1,1,1,2,2,3,2,1,3,2,1,2,1,3,2,2,1,2,3,1,3,2,1,2,1,3,2,1,0,0,1,"other","I have read this",0.5,0.25,0.833333333333333,0.75,0.833333333333333,0.75,0.333333333333333,0.416666666666667,0.166666666666667,0.583333333333333,0.791666666666667,0.395833333333333,104,0.949438202247191,0.999992,0.230769230769231,0.0225332976952204,"low","high","high","low","high",0.875,0.9,-0.13,0.271458333333333,0.0639583333333333,0.0675,-0.345,"1",0.0792533511681531,0.133538908370217,0.172045463167395,0.107553196919102,3,1,30,0.585742668898634,1.61965108394921,-0.967880788621982,-0.133,-0.127857142857143,-0.683153467978221,-0.514173922318825,-0.706567580294964,1.60332014185574,0.301868126327325,0.291347661837388,-1.48560422903788,0.75,0.025,0,0
"b75_y05_r20","65a7027c88eae2b9a68ae596","SHADESEED",5,1,56414.599999964,85,90,20,23,0,"[{""numbers"":[2,4,6],""theory"":""Given example"",""result"":""yes""}]",0,"[{""numbers"":[2,4,6],""theory"":""Given example"",""result"":""yes""}]",0,"[]","Add 2 to the each number in the pattern","list all positive even numbers",88,80,27585.899999976,9887.3000000119,"add 2 each number","list every even number beginning with 2","list all positve multiples of 2",NA,NA,NA,2,3,3,2,2,1,1,1,1,1,1,1,2,2,3,2,1,3,2,1,2,1,3,2,2,1,2,3,1,3,2,1,2,1,3,2,1,0,0,1,"other","I have read this",0.5,0.25,0.833333333333333,0.75,0.833333333333333,0.75,0.333333333333333,0.416666666666667,0.166666666666667,0.583333333333333,0.791666666666667,0.395833333333333,104,0.999703791469194,1,0.0666666666666667,0.000128660786573724,"low","high","high","low","high",0.925,0.95,-0.13,0.271458333333333,0.0639583333333333,0.0675,-0.345,"2",0.0792533511681531,0.133538908370217,0.172045463167395,0.107553196919102,3,1,20,0.585742668898634,1.61965108394921,-0.967880788621982,-0.133,-0.127857142857143,-0.683153467978221,-0.514173922318825,-0.706567580294964,1.60332014185574,0.301868126327325,0.291347661837388,-1.48560422903788,0.85,0.0249999999999999,0,0
"b50_y30_r20","65a7027c88eae2b9a68ae596","HARVESTWELL",13,1,53817.600000024,50,60,35,26,0,"[{""numbers"":[2,4,6],""theory"":""Given example"",""result"":""yes""}]",0,"[{""numbers"":[2,4,6],""theory"":""Given example"",""result"":""yes""}]",0,"[]","Add 2 to the each number in the pattern","list all positive even numbers",88,80,27585.899999976,9887.3000000119,"add 2 each number","list every even number beginning with 2","list all positve multiples of 2",NA,NA,NA,2,3,3,2,2,1,1,1,1,1,1,1,2,2,3,2,1,3,2,1,2,1,3,2,2,1,2,3,1,3,2,1,2,1,3,2,1,0,0,1,"other","I have read this",0.5,0.25,0.833333333333333,0.75,0.833333333333333,0.75,0.333333333333333,0.416666666666667,0.166666666666667,0.583333333333333,0.791666666666667,0.395833333333333,104,0.735294117647059,0.8223684,0.6,0.133538908370217,"low","high","high","low","high",0.75,0.8,-0.13,0.271458333333333,0.0639583333333333,0.0675,-0.345,"3",0.0792533511681531,0.133538908370217,0.172045463167395,0.107553196919102,3,1,35,0.585742668898634,1.61965108394921,-0.967880788621982,-0.133,-0.127857142857143,-0.683153467978221,-0.514173922318825,-0.706567580294964,1.60332014185574,0.301868126327325,0.291347661837388,-1.48560422903788,0.5,0.05,0,0
"b25_y55_r20","65a7027c88eae2b9a68ae596","STRONGLEAF",9,1,36228.199999988,60,65,30,29,0,"[{""numbers"":[2,4,6],""theory"":""Given example"",""result"":""yes""}]",0,"[{""numbers"":[2,4,6],""theory"":""Given example"",""result"":""yes""}]",0,"[]","Add 2 to the each number in the pattern","list all positive even numbers",88,80,27585.899999976,9887.3000000119,"add 2 each number","list every even number beginning with 2","list all positve multiples of 2",NA,NA,NA,2,3,3,2,2,1,1,1,1,1,1,1,2,2,3,2,1,3,2,1,2,1,3,2,2,1,2,3,1,3,2,1,2,1,3,2,1,0,0,1,"other","I have read this",0.5,0.25,0.833333333333333,0.75,0.833333333333333,0.75,0.333333333333333,0.416666666666667,0.166666666666667,0.583333333333333,0.791666666666667,0.395833333333333,104,0.828767123287671,0.9141484,0.454545454545455,0.081567485467987,"low","high","high","low","high",0.8,0.825,-0.13,0.271458333333333,0.0639583333333333,0.0675,-0.345,"4",0.0792533511681531,0.133538908370217,0.172045463167395,0.107553196919102,3,1,30,0.585742668898634,1.61965108394921,-0.967880788621982,-0.133,-0.127857142857143,-0.683153467978221,-0.514173922318825,-0.706567580294964,1.60332014185574,0.301868126327325,0.291347661837388,-1.48560422903788,0.6,0.0249999999999999,0,0
"b20_y60_r20","65a7027c88eae2b9a68ae596","TALLGRAIN",9,1,39204.399999976,70,80,25,32,0,"[{""numbers"":[2,4,6],""theory"":""Given example"",""result"":""yes""}]",0,"[{""numbers"":[2,4,6],""theory"":""Given example"",""result"":""yes""}]",0,"[]","Add 2 to the each number in the pattern","list all positive even numbers",88,80,27585.899999976,9887.3000000119,"add 2 each number","list every even number beginning with 2","list all positve multiples of 2",NA,NA,NA,2,3,3,2,2,1,1,1,1,1,1,1,2,2,3,2,1,3,2,1,2,1,3,2,2,1,2,3,1,3,2,1,2,1,3,2,1,0,0,1,"other","I have read this",0.5,0.25,0.833333333333333,0.75,0.833333333333333,0.75,0.333333333333333,0.416666666666667,0.166666666666667,0.583333333333333,0.791666666666667,0.395833333333333,104,0.964285714285714,0.9998476,0.333333333333333,0.0157942671832319,"low","high","high","low","high",0.85,0.9,-0.13,0.271458333333333,0.0639583333333333,0.0675,-0.345,"5",0.0792533511681531,0.133538908370217,0.172045463167395,0.107553196919102,3,1,25,0.585742668898634,1.61965108394921,-0.967880788621982,-0.133,-0.127857142857143,-0.683153467978221,-0.514173922318825,-0.706567580294964,1.60332014185574,0.301868126327325,0.291347661837388,-1.48560422903788,0.7,0.05,0,0
"b70_y10_r20","65a7027c88eae2b9a68ae596","WAKESOIL",10,1,36531.600000024,75,85,20,35,0,"[{""numbers"":[2,4,6],""theory"":""Given example"",""result"":""yes""}]",0,"[{""numbers"":[2,4,6],""theory"":""Given example"",""result"":""yes""}]",0,"[]","Add 2 to the each number in the pattern","list all positive even numbers",88,80,27585.899999976,9887.3000000119,"add 2 each number","list every even number beginning with 2","list all positve multiples of 2",NA,NA,NA,2,3,3,2,2,1,1,1,1,1,1,1,2,2,3,2,1,3,2,1,2,1,3,2,2,1,2,3,1,3,2,1,2,1,3,2,1,0,0,1,"other","I have read this",0.5,0.25,0.833333333333333,0.75,0.833333333333333,0.75,0.333333333333333,0.416666666666667,0.166666666666667,0.583333333333333,0.791666666666667,0.395833333333333,104,0.999583680266445,1,0.142857142857143,0.000180843009859926,"low","high","high","low","high",0.875,0.925,-0.13,0.271458333333333,0.0639583333333333,0.0675,-0.345,"6",0.0792533511681531,0.133538908370217,0.172045463167395,0.107553196919102,3,1,20,0.585742668898634,1.61965108394921,-0.967880788621982,-0.133,-0.127857142857143,-0.683153467978221,-0.514173922318825,-0.706567580294964,1.60332014185574,0.301868126327325,0.291347661837388,-1.48560422903788,0.75,0.05,0,0
"b35_y45_r20","65a7027c88eae2b9a68ae596","PUREGRAIN",18,0,68875.199999988,40,50,50,38,0,"[{""numbers"":[2,4,6],""theory"":""Given example"",""result"":""yes""}]",0,"[{""numbers"":[2,4,6],""theory"":""Given example"",""result"":""yes""}]",0,"[]","Add 2 to the each number in the pattern","list all positive even numbers",88,80,27585.899999976,9887.3000000119,"add 2 each number","list every even number beginning with 2","list all positve multiples of 2",NA,NA,NA,2,3,3,2,2,1,1,1,1,1,1,1,2,2,3,2,1,3,2,1,2,1,3,2,2,1,2,3,1,3,2,1,2,1,3,2,1,0,0,1,"other","I have read this",0.5,0.25,0.833333333333333,0.75,0.833333333333333,0.75,0.333333333333333,0.416666666666667,0.166666666666667,0.583333333333333,0.791666666666667,0.395833333333333,104,0.5,0.6230769,0.777777777777778,0.301029995663981,"low","high","high","low","high",0.7,0.75,-0.13,0.271458333333333,0.0639583333333333,0.0675,-0.345,"7",0.0792533511681531,0.133538908370217,0.172045463167395,0.107553196919102,3,1,50,0.585742668898634,1.61965108394921,-0.967880788621982,-0.133,-0.127857142857143,-0.683153467978221,-0.514173922318825,-0.706567580294964,1.60332014185574,0.301868126327325,0.291347661837388,-1.48560422903788,0.4,0.05,0,0
